accelerometer_x,accelerometer_y,accelerometer_z,gyroscope_x,gyroscope_y,gyroscope_z,state
-0.7741210937499999,-9.43337109375,1.78462890625,0.01247021875,-0.020279328125,0.0013860234375,STAND
-0.7590820312500001,-9.4413359375,1.766234375,0.00148812890625,-0.017444828125,-0.00215562109375,STAND
-0.7265703125,-9.446578125000002,1.73708203125,-0.009374734375,-0.0166305,-0.0050441093749999995,STAND
-0.691625,-9.455800781250002,1.71775390625,-0.010947777343750001,-0.01582577734375,-0.00906585546875,STAND
-0.64715625,-9.4613359375,1.69016015625,-0.0109132578125,-0.018141820312499998,-0.01136984375,STAND
-0.6026835937499999,-9.469000000000001,1.65979296875,-0.012900140625,-0.016775300781250002,-0.01482765625,STAND
-0.5717304687500001,-9.476964843750002,1.6220859375,-0.0135459375,-0.01246934375,-0.015829515625000002,STAND
-0.53433984375,-9.4898515625,1.5773476562500002,-0.0171207890625,-0.00891173828125,-0.01382015625,STAND
-0.51809765625,-9.50209375,1.54176953125,-0.01805471875,-0.014828781249999999,-0.0117623125,STAND
-0.5009375,-9.50977734375,1.51448046875,-0.015020078125000001,-0.00599434375,-0.00704219921875,STAND
-0.477015625,-9.50976953125,1.49884765625,-0.011471859375,0.0030939218750000003,-0.008465578125,STAND
-0.46076171875,-9.507320312500001,1.4979375,-0.00673241015625,0.0066257578125,-0.00930713671875,STAND
-0.4558359375,-9.505484375,1.50100390625,0.000759171875,0.010281007812500001,-0.0086174609375,STAND
-0.4641171875,-9.499621093750001,1.51020703125,0.0019227109374999997,0.004511546875,-0.0027566796875,STAND
-0.48648437499999997,-9.4981015625,1.52001953125,0.00369475,0.010443953124999999,0.0034488125,STAND
-0.5171679687499999,-9.49717578125,1.53965234375,0.006078265625,0.01542819921875,0.0056002734375,STAND
-0.5511796875,-9.486761718750001,1.560484375,0.0083627421875,0.011402046875,0.011385757812500001,STAND
-0.581515625,-9.476328125,1.5834765625,0.009794199218749999,0.0082941171875,0.01238355078125,STAND
-0.61521484375,-9.46775390625,1.605234375,0.009965390624999999,0.011126359375,0.01205615625,STAND
-0.63697265625,-9.47296875,1.6208749999999998,0.0086267265625,0.00400592578125,0.01069828125,STAND
-0.6627421875,-9.466531250000001,1.6361796874999999,0.0060260078125,-0.0060179609375,0.011066445312500001,STAND
-0.67746484375,-9.46714453125,1.654578125,0.00694270703125,-0.015869761718749997,0.012977226562500001,STAND
-0.7062890625,-9.45854296875,1.66683203125,0.0052974843750000005,-0.01882353125,0.0115314375,STAND
-0.71517578125,-9.46315234375,1.6653203125,0.00337394921875,-0.023029648437499998,0.01346616015625,STAND
-0.7164101562499999,-9.462515625,1.6693046875,-0.0006224531250000001,-0.0271891875,0.0086650078125,STAND
-0.7293007812500001,-9.46158984375,1.6643984375,-0.00173991796875,-0.02859841015625,0.0081980234375,STAND
-0.727453125,-9.465250000000001,1.64937109375,-0.00331275,-0.014351906250000001,0.005788140625,STAND
-0.71580078125,-9.4686171875,1.6407890625,-0.00490826953125,-0.0070313945312499996,0.00047052343749999997,STAND
-0.7032421875,-9.4673828125,1.6493828125,-0.0025938124999999998,-0.005350890625,-0.0040671953125,STAND
-0.7047890625000001,-9.465843750000001,1.654609375,0.0017666953124999998,-0.00043047265624999954,-0.00260292578125,STAND
-0.6974296875000001,-9.46246484375,1.6543046875,0.0013555312499999997,0.004577203125,-0.002096078125,STAND
-0.68851953125,-9.46555078125,1.6521601562500001,0.0006900820312499997,0.013819000000000001,-0.00571141015625,STAND
-0.6722812499999999,-9.469218750000001,1.656765625,0.0009386406249999997,0.0136436015625,-0.0062643984375,STAND
-0.65448046875,-9.46553515625,1.6656367187499999,0.0026668164062499996,0.01488326953125,-0.0098180625,STAND
-0.6336171875,-9.46646875,1.669015625,0.00416534375,0.017656250000000002,-0.010445109374999999,STAND
-0.6084492187499999,-9.465851562500001,1.67209375,0.0027994609374999996,0.014707207031249999,-0.0115200234375,STAND
-0.5814648437500001,-9.46616015625,1.6797421875,0.0022117499999999997,0.002883640625,-0.0113714296875,STAND
-0.56645703125,-9.46892578125,1.67636328125,0.0014293124999999998,-0.0060333867187500004,-0.00919209375,STAND
-0.5444023437500001,-9.46678125,1.6607265625,-0.00207253125,-0.0071429843750000005,-0.00530603125,STAND
-0.51619140625,-9.473234375,1.64813671875,-0.005455453125000001,-0.008652421875,-0.00829216796875,STAND
-0.48582421875,-9.4790703125,1.6352734375,-0.0050830078125,-0.0050773125,-0.01017228125,STAND
-0.46069531249999995,-9.479984375,1.60827734375,-0.0072856953125,-0.005711796874999999,-0.01072483203125,STAND
-0.43308984375,-9.48797265625,1.57239453125,-0.011436234375000002,-0.008529296875,-0.0106454375,STAND
-0.4131875,-9.4941328125,1.52151953125,-0.0159511328125,-0.00202275,-0.0098113046875,STAND
-0.39755468749999995,-9.500578125,1.47674609375,-0.0191305703125,0.0027798750000000002,-0.009230523437499999,STAND
-0.38562109375,-9.500886718750001,1.43625,-0.018774625,0.0020589921875000007,-0.0071623749999999995,STAND
-0.3788984375,-9.506730468750002,1.3942617187500002,-0.017326796874999998,0.0014191250000000005,-0.00530971875,STAND
-0.37367578125,-9.51226171875,1.35962890625,-0.016640242187499998,0.0031739960937500005,-0.0041643828125,STAND
-0.37151562499999996,-9.52300390625,1.3268125000000002,-0.01364646875,0.010719507812500001,-0.00435903125,STAND
-0.37027343749999997,-9.52853125,1.2887890625,-0.014553851562500001,0.0127509453125,-0.0032766328124999994,STAND
-0.3767265625,-9.528828125,1.2535273437499999,-0.015300343749999999,0.0034632656250000006,-0.0005689999999999998,STAND
-0.38192578125,-9.53252734375,1.2234921875,-0.01471829296875,-0.0006082656249999996,0.0024009062500000003,STAND
-0.405546875,-9.53404296875,1.1993125,-0.012540250000000001,-0.002019,0.00430075,STAND
-0.42577734375,-9.536496093750001,1.18953515625,-0.008952902343750001,-0.00013744531249999982,0.00843904296875,STAND
-0.4423203125,-9.5407890625,1.17944921875,-0.00544234375,0.0034988437500000002,0.007807296875,STAND
-0.45641015625000003,-9.544484375000001,1.17271875,-0.0038060546874999998,-0.00247824609375,0.00791562109375,STAND
-0.46558984375,-9.54050390625,1.16353515625,-0.004686093749999999,-0.003442625,0.0054325078125,STAND
-0.4760390625,-9.54417578125,1.1662656249999999,-0.0026450625000000003,-0.00295801953125,0.0048682421875,STAND
-0.48767578125000005,-9.543558593750001,1.1610390625,-0.000507375,-0.004487937500000001,0.0056708125,STAND
-0.4867734375,-9.54508984375,1.14851171875,-0.00228416796875,-0.004080097656249999,0.00394051953125,STAND
-0.4873828125,-9.5435625,1.1292304687499999,-0.0052681796875,0.0024133671875000004,0.00031207031249999996,STAND
-0.48737890624999997,-9.546304687500001,1.1059765625,-0.008016910156250001,0.003567296875,-0.000302359375,STAND
-0.48461328124999997,-9.548468750000001,1.0811445312499999,-0.00998878125,0.002209421875,-0.00010978124999999996,STAND
-0.47940234375,-9.549382812500001,1.05726171875,-0.010902480468750001,-0.0034090625,-0.0013563671875000002,STAND
-0.477859375,-9.547246093750001,1.0419296875000001,-0.009581562500000002,-0.0122871953125,-4.057031250000003e-05,STAND
-0.47203125,-9.5429453125,1.0204921875,-0.0091372265625,-0.011869343749999999,7.754687499999999e-05,STAND
-0.4775703125,-9.546328125,1.0030234375,-0.007492171875,-0.005018156249999999,-0.00034629687500000003,STAND
-0.4723515625,-9.545406250000001,0.97241796875,-0.00959016796875,-0.0044053437499999995,0.0003217578125,STAND
-0.46530859375,-9.547542968750001,0.9445546875,-0.0123509453125,-0.006499859374999999,-0.0012113828124999998,STAND
-0.46560937500000005,-9.544769531250001,0.9286289062499999,-0.010635105468750001,-0.008433953125,-0.00108154296875,STAND
-0.46930078125,-9.54693359375,0.9209531249999999,-0.006461421875000001,-0.01130665625,0.0006686093749999999,STAND
-0.47361328125,-9.54632421875,0.920953125,-0.00402469921875,-0.0148428984375,0.00226810546875,STAND
-0.47607812499999996,-9.54845703125,0.9347578125,-0.0002790468750000002,-0.015348453125,0.0030850781249999997,STAND
-0.4800859375,-9.5429453125,0.9457734375,0.0049606875,-0.0103675625,0.0020511445312499997,STAND
-0.4816328125,-9.542335937499999,0.95433203125,0.0039485625,-0.00527815625,0.0015684687500000002,STAND
-0.48871484375,-9.548167968750002,0.9592499999999999,0.00399158984375,0.00046283984375000036,0.00164461328125,STAND
-0.48932421875000004,-9.5484609375,0.9629374999999999,0.0012964296874999998,0.0020484218750000003,0.0021756875,STAND
-0.493015625,-9.549703125,0.9681640625,0.0023895703124999996,0.0008333710937500005,0.00029819140625000006,STAND
-0.49085937500000004,-9.546968750000001,0.971546875,0.002263734375,0.00255696875,0.00068375,STAND
-0.49640234375,-9.54637109375,0.97032421875,0.0011597695312499999,0.0016200195312500005,0.00037666015625,STAND
-0.5013046875,-9.54912890625,0.9706367187499999,-0.0007683906250000002,-0.0045007890625,0.0029122265625,STAND
-0.5028203125,-9.55095703125,0.9712578124999999,1.4023437499999864e-05,-0.0003438359374999993,0.00146130078125,STAND
-0.5034296875000001,-9.547578125000001,0.9718671875,0.0009793281249999997,0.0022348437500000007,0.00014390625000000002,STAND
-0.505890625,-9.54850390625,0.97953125,0.0018553046875,0.0057882890625,-0.00012013671874999996,STAND
-0.5089414062500001,-9.54665625,0.9795624999999999,0.0024067968749999996,0.006296070312500001,0.00021041406250000004,STAND
-0.5107539062500001,-9.5478671875,0.9878437499999999,0.0015120937499999998,0.007499730468750001,0.0005004101562500001,STAND
-0.50859375,-9.55063671875,0.9988671874999999,0.003746953125,0.003349203125,-0.0007823593749999999,STAND
-0.513484375,-9.55246484375,1.01629296875,0.004971734375,0.0016698203125000005,-0.0004956601562499999,STAND
-0.51748046875,-9.54570703125,1.03862109375,0.00687334375,0.006656335937500001,0.000488671875,STAND
-0.5211484375,-9.542625000000001,1.0916328124999999,0.01412265234375,0.011045957031250001,0.00039034765625,STAND
-0.52819921875,-9.538921875,1.14401953125,0.021636390625,0.020079109375,-0.00178096875,STAND
-0.52083203125,-9.534324218750001,1.1887460937499998,0.022495859375000003,0.02444391015625,-0.0014264296875,STAND
-0.53064453125,-9.534625,1.21599609375,0.0179903515625,0.0271128828125,-0.0035108906249999997,STAND
-0.53459375,-9.534625000000002,1.2355742187499998,0.013622546875,0.032002062500000004,-0.00195180859375,STAND
-0.53611328125,-9.533097656250002,1.2674023437500002,0.0108484375,0.022787921875000002,-0.0010105000000000001,STAND
-0.53215234375,-9.52482421875,1.29861328125,0.014357523437499999,0.01668616015625,-0.0025752109375,STAND
-0.53891015625,-9.517765625,1.33105859375,0.013745218750000001,0.014562109375000002,-0.0013740078125,STAND
-0.5444218749999999,-9.51376953125,1.3522148437500001,0.0132125234375,0.011711871093750001,0.001092921875,STAND
-0.54900390625,-9.50978125,1.3672421875,0.01064771875,0.010523593749999999,0.0005670000000000001,STAND
-0.55145703125,-9.51469140625,1.34946875,0.0032506914062500002,-0.00043661328125000004,0.00116883984375,STAND2SIT
-0.5211054687500001,-9.4273515625,1.3173046875,-0.009374203125,-0.0055655078125,6.225781250000008e-05,STAND2SIT
-0.5355078125,-9.343371093750001,1.49751953125,0.016387640624999998,-0.0082267734375,-0.006264476562499999,STAND2SIT
-0.63171875,-9.16805859375,1.9793203125,0.105756546875,-0.0057078125,0.0108558125,STAND2SIT
-0.8076289062500001,-8.749093750000002,2.6456015625,0.2208279921875,0.00705813671875,0.03778162109375,STAND2SIT
-1.029828125,-8.118363281250002,3.423125,0.343273328125,0.025997210937499998,0.061821203124999995,STAND2SIT
-1.32003125,-7.4002890625,4.15928515625,0.41713903515625,0.041608796875,0.0910072421875,STAND2SIT
-1.59553125,-6.6723984375,4.90616796875,0.442995984375,0.056233734375000004,0.12220453125000001,SIT
-1.86583984375,-5.93285546875,5.64201171875,0.45439088281249995,0.058891296875,0.12797489843749998,SIT
-2.12572265625,-5.1982421875,6.38398828125,0.4570370234375,0.0590242265625,0.1323188984375,SIT
-2.3920664062499997,-4.43970703125,7.13790234375,0.4611500234375,0.059595109375000004,0.13352746484375,SIT
-2.67708203125,-3.7066523437499996,7.9190859375,0.471138265625,0.061080734375,0.13721759375,SIT
-2.9679453125,-3.0508281250000002,8.54640625,0.4644433125,0.0617318359375,0.143620828125,SIT
-3.18005078125,-2.41767578125,8.881078124999998,0.3881485703125,0.0600902265625,0.1433468828125,SIT
-3.3032578125,-1.99259375,9.004570312499999,0.2772546796875,0.042173441406250005,0.12310405078125,SIT
-3.36486328125,-1.8252734375,8.9920390625,0.1504848125,0.02438978125,0.100735390625,SIT
-3.38875390625,-1.77103515625,8.99850390625,0.06383858203125,0.01761576171875,0.0714261484375,SIT
-3.386609375,-1.7308828125,8.993328125,0.02614634375,0.0021993046875,0.037961804687499996,SIT
-3.40683203125,-1.7036328125,8.99794140625,0.0103498984375,0.0027819062499999997,0.02777344140625,SIT
-3.4240078125,-1.67878515625,9.00255859375,0.004871765625,0.0023730625,0.022367703125,SIT
-3.44330078125,-1.66562890625,8.997988281249999,0.0050235195312499994,0.0037025546875,0.0197681953125,SIT
-3.4684062499999997,-1.6619609375,8.991867187499999,-3.2445312500000146e-05,0.0061182421875,0.015575953125,SIT
-3.48370703125,-1.66256640625,8.979355468749999,-0.0044354296875,0.00630448046875,0.018733824218749997,SIT
-3.4952929687500003,-1.658890625,8.977203125,-0.00401496875,0.0044691875,0.013925328125,SIT
-3.51241796875,-1.6500078125,8.969867187499998,-2.6156249999999934e-05,0.00538198046875,0.004287015625,SIT
-3.5249609375,-1.63962109375,8.963117187499998,0.006373109375,0.007210921875,-0.0045068046875,SIT
-3.53291796875,-1.6313515625,8.956363281249999,0.0044274414062500005,0.005777453125000001,-0.00287045703125,SIT
-3.5423945312500003,-1.6276953125,8.95266015625,0.004490328125,0.005501875,-0.0034132656249999996,SIT
-3.54483203125,-1.6212851562500001,8.94897265625,0.00500205078125,0.0048617929687500006,-0.00602765625,SIT
-3.5524609375,-1.6023164062500002,8.944671875,0.0060940000000000005,0.0035456875000000002,-0.0049119921874999995,SIT
-3.56929296875,-1.5964999999999998,8.94315625,0.00642060546875,0.006135828125,-0.002113359375,SIT
-3.5818554687499997,-1.58914453125,8.94101171875,0.0020210625000000003,0.004785046875,0.005796421875,SIT
-3.5907382812499997,-1.5845312500000002,8.937015624999999,0.00186960546875,0.00478355859375,0.0030835585937500003,SIT
-3.5971914062500003,-1.5854453125,8.93455078125,0.0013468671875000002,0.0047014453125,4.3015625000000275e-05,SIT
-3.59566015625,-1.5805390625,8.92962890625,0.0019174882812500002,0.002852890625,-0.0017918632812499997,SIT
-3.588921875,-1.5851406250000002,8.93544921875,-0.0020881562499999997,-0.0006314687499999997,0.00384290625,SIT
-3.5778984375,-1.5786953125,8.9406953125,-0.0006211874999999999,-0.00319840625,0.0029976953125,SIT
-3.5687265625,-1.57318359375,8.94622265625,-0.0005220390624999998,-0.0052033984375,0.005053421875,SIT
-3.56811328125,-1.5636484375000002,8.94438671875,-0.0006368554687499999,-0.00517927734375,0.009308183593750002,SIT
-3.5656757812500004,-1.5661171875000002,8.9443984375,-0.0017972031249999998,-0.0028972812499999997,0.011096171875,SIT
-3.555875,-1.56457421875,8.94408984375,-0.0032841015625,-0.0033126757812499998,0.008235679687499999,SIT
-3.54545703125,-1.5621171875,8.946542968749998,7.410937500000009e-05,-0.0038619765624999997,0.0016072265625000001,SIT
-3.5356445312500004,-1.55935546875,8.948390625,0.00296227734375,-0.0031887265624999995,-0.0041442812499999995,SIT
-3.52491015625,-1.559046875,8.95421484375,0.00330396875,-0.003382859375,-0.006670609375,SIT
-3.5212421875,-1.56489453125,8.961601562499999,0.0019149960937500001,-0.0033165624999999996,-0.005311640624999999,SIT
-3.52398828125,-1.5621171875,8.962535156249999,-0.0006309296875,-0.0024762968749999998,-0.0012810078124999998,SIT
-3.52642578125,-1.5627304687499999,8.960382812499999,0.00020280859375000003,-0.0001243632812499997,0.0009786562500000001,SIT
-3.53314453125,-1.55996484375,8.957933593749999,-0.001637390625,9.343750000000319e-06,0.00443784375,SIT
-3.53834765625,-1.56151171875,8.956703125,0.00049739453125,0.0032948164062500005,0.0009327070312500003,SIT
-3.54476171875,-1.5584375,8.955773437500001,0.0015719375,0.002719390625,-0.002577140625,SIT
-3.55055078125,-1.5590546875,8.956085937500001,0.0019041328125,0.0029236640625000003,-0.00318089453125,SIT
-3.557875,-1.55812890625,8.95176953125,0.001232390625,0.0028740156250000003,-0.002739109375,SIT
-3.5621562499999997,-1.56428515625,8.95085546875,-0.00080416015625,0.0026136562500000005,-0.0001333359374999999,SIT
-3.5658281250000003,-1.56305078125,8.94778515625,-0.00347,0.0004708359375000003,0.005783390625,SIT
-3.56858203125,-1.56613671875,8.94348046875,-0.0043773984375,0.00030614453125000026,0.009840675781249999,SIT
-3.5701015625,-1.56707421875,8.9416484375,-0.00248303125,0.0010395781250000004,0.0058555,SIT
-3.5707109375000003,-1.57046875,8.941957031249999,-0.0026478945312499997,0.00038425390625000026,0.0042168984375,SIT
-3.5707109375,-1.5744687499999999,8.946230468749999,-0.0007938046874999998,0.00021097656250000023,-0.0014255703125,SIT
-3.562140625,-1.57846484375,8.95052734375,-0.0006111679687499998,-0.0013044609374999998,-0.0027239804687499997,SIT
-3.557859375,-1.58646875,8.9514609375,-0.0006081249999999997,-0.0018232499999999998,-0.00490175,SIT
-3.552984375,-1.59198828125,8.948070312499999,-0.0003586171874999998,-0.0008528085937499997,-0.0059737890625,SIT
-3.5423085937499996,-1.6039609375,8.9554453125,-0.0015723593749999998,-0.0013658749999999997,-0.0053730625,SIT
-3.53254296875,-1.6116015625,8.95298046875,-0.00427671484375,-0.00434884765625,-0.0009216523437499999,SIT
-3.5294921875,-1.62474609375,8.956355468749999,-0.00446028125,-0.0033547031249999996,-0.0012575,SIT
-3.5206328125,-1.63664453125,8.964328125,-0.00468757421875,-0.00291856640625,-0.0011804531249999999,SIT
-3.514234375,-1.6482578125,8.96401953125,-0.004312921875,-0.004106656249999999,-0.0018857031249999998,SIT
-3.506921875,-1.65985546875,8.964328125,-0.003695734375,-0.0029274453124999997,-0.0036558515625,SIT
-3.5047890625,-1.6693125,8.961269531249998,-0.00356071875,-0.0018657499999999996,-0.0028435312499999997,SIT
-3.5029609375,-1.67726953125,8.95822265625,-0.003077921875,-0.0006727695312499996,-0.00410230859375,SIT
-3.4999140625,-1.682453125,8.9582265625,-0.0024845078125,-0.0006074843749999997,-0.0014979453124999997,SIT
-3.5017421875,-1.6870234375000002,8.964984375,-0.00363121875,-0.0014355976562499997,0.0015398125,SIT
-3.503265625,-1.68733203125,8.96223828125,-0.00117975,-0.0008929687499999996,0.001086421875,SIT
-3.50509375,-1.6882460937500001,8.968695312499998,-0.0006277343749999999,8.578125000000025e-05,0.0009965703125000003,SIT
-3.50509375,-1.68184765625,8.9683828125,0.0009888437500000001,-6.625781249999975e-05,-0.0004889062499999998,SIT
-3.5066171875000003,-1.67451953125,8.96348046875,0.0034389023437500004,0.0009933085937500004,-0.00333248828125,SIT
-3.5072265625,-1.67055859375,8.96684765625,0.00588528125,0.0027729687500000003,-0.007918328125,SIT
-3.5060078125,-1.66842578125,8.964707031249999,0.00542688671875,0.0018821601562500003,-0.009156296875,SIT
-3.5005234375,-1.66903515625,8.965628906249998,0.002586328125,0.0008114843750000002,-0.0054349609374999995,SIT
-3.4974765624999997,-1.67116796875,8.968679687499998,0.00126488671875,-0.0008846523437499996,-0.003944851562500001,SIT
-3.4941250000000004,-1.67573828125,8.9738828125,-0.0013030625,-0.0015778749999999999,0.000729,SIT
-3.4926015625,-1.6781875,8.9735546875,-0.00086684375,-0.0016633046874999996,-7.074999999999996e-05,SIT
-3.4858984375,-1.680625,8.9723125,-0.0017695625,-0.0014111796874999997,0.00041496874999999986,SIT
-3.4812968750000004,-1.67267578125,8.975667968749999,-0.0005778632812499999,-0.0009881953124999997,0.0015306757812499998,SIT
-3.46598828125,-1.6665625,8.9799453125,0.002731078125,-0.0038958281249999996,-0.00047825000000000016,SIT
-3.4537578125,-1.66594921875,8.98515234375,0.00110746484375,-0.005033929687499999,0.00331484375,SIT
-3.4424453125,-1.66533984375,8.9872890625,-0.001990671875,-0.0063222578125,0.0053220703125,SIT
-3.440609375,-1.66229296875,8.994921875,-0.001251625,-0.0049691640625,0.0062152382812499995,SIT
-3.4378515625,-1.65496484375,8.997984375,0.001147203125,-0.0027649999999999997,0.0025504843750000002,SIT
-3.4372265625000002,-1.64551171875,8.999812499999999,0.0023332265625,-0.0013757382812499997,0.00281710546875,SIT
-3.4323515625,-1.6360390625,9.000421874999999,0.0044911796875,-0.0006468437499999997,-0.0013124765625000003,SIT
-3.4268632812499997,-1.6265546875,9.001359375,0.003939148437500001,-0.0008534257812499996,-0.00118198046875,SIT
-3.4210429687499997,-1.61739453125,9.00412890625,0.004769953125,-0.0022065312499999997,-0.0011174999999999998,SIT
-3.41493359375,-1.6155625,9.006566406249998,0.005694320312500001,-0.0015874609374999997,-0.00585561328125,SIT
-3.425078125,-1.6177109375,9.00808984375,0.0031474375,0.0008195000000000003,-0.0053833828124999995,SIT
-3.4250742187500003,-1.62199609375,9.00625,0.00243322265625,0.0027922812500000005,-0.00779472265625,SIT
-3.4357890625,-1.6167851562500002,9.0053359375,0.00167784375,0.002828234375,-0.007826015624999998,SIT
-3.4367109375,-1.61952734375,9.00625390625,0.00190063671875,0.00298278125,-0.0013395390624999998,SIT
-3.4461796875,-1.62015234375,9.00290234375,0.0013505703125000002,0.0021030859375000006,-0.0021926171875,SIT
-3.45259375,-1.6186171875,8.998304687500001,0.00015648828125000021,0.0029190390625000004,-0.0010195468749999998,SIT
-3.4605156249999998,-1.6155625,8.9934140625,0.0003761875000000002,0.0030651250000000006,0.0006378437500000004,SIT
-3.46905078125,-1.6137304687499998,8.9949375,0.0021345859375,0.00386553125,-0.0030454570312499997,SIT
-3.48522265625,-1.6112578124999999,8.99279296875,0.0007977968750000001,0.004063031250000001,0.0004904765625000002,SIT
-3.49744140625,-1.6054062500000001,8.98482421875,0.00025203906250000015,0.00527691796875,0.0038120234375000005,SIT
-3.5111875,-1.60294921875,8.9778046875,0.00048179687500000013,0.006102875,0.0028583593750000002,SIT
-3.5221640625,-1.5965,8.972308593749998,0.0019932421875,0.00574432421875,0.0006127109375000001,SIT
-3.5356015624999997,-1.59315234375,8.967105468749999,0.0026636484375000004,0.00568521875,0.0009001640625000001,SIT
-3.5450546875,-1.5851718750000001,8.961917968749999,0.0021118203125,0.0047517421875000005,-0.0015176249999999999,SIT
-3.5484062499999998,-1.58087109375,8.960695312499999,0.0027405000000000003,0.004434609375000001,0.0005542500000000003,SIT
-3.5520625,-1.57471875,8.9616171875,0.00244426953125,0.0020703125000000005,0.0016295078125,SIT
-3.5590859375,-1.573484375,8.96130859375,0.00214959375,0.0016003281250000004,0.0004282109375000002,SIT
-3.56214453125,-1.5762500000000002,8.95826171875,0.00025287890625000007,0.0019024218750000002,0.00226978515625,SIT
-3.56214453125,-1.57411328125,8.9558203125,0.0005992656250000002,0.002019125,-0.0006273437499999999,SIT
-3.5658203125,-1.57809765625,8.956742187499998,-0.00020455078124999993,0.0008420703125000004,-0.0018561210937499998,SIT
-3.56643359375,-1.58240625,8.955804687499999,0.0008858906250000001,0.0012307578125000003,-0.0037767656249999997,SIT
-3.5725585937499997,-1.58885546875,8.956421874999998,-0.0027405703124999997,0.0009999062500000001,0.0018300859375000003,SIT
-3.5728671875,-1.590703125,8.955496093749998,-0.004535109375,5.184375000000027e-05,0.0060828125000000005,SIT
-3.574703125,-1.5968437500000001,8.95303515625,-0.0023284453125,0.0006766210937500002,0.0011457421875000003,SIT
-3.5737929687500003,-1.59837890625,8.953031249999999,-0.0029771171874999995,0.0007428671875000003,0.0009872656250000005,SIT
-3.5750351562500002,-1.60239453125,8.950871093750001,-0.0018219531249999998,0.00018728125000000027,0.0010022695312500004,SIT
-3.57871875,-1.60821875,8.94808984375,-0.001493171875,0.0013866406250000003,-0.0020572031249999996,SIT
-3.57564453125,-1.61218359375,8.94593359375,-0.00331384765625,0.0005623046875000002,0.0005369140625000005,SIT
-3.577484375,-1.62076171875,8.94317578125,-0.002541453125,-0.00034860937499999974,-0.0006547890624999996,SIT
-3.5747343750000002,-1.62443359375,8.94684765625,-0.0018483046874999997,0.00041250390625000027,-0.0013087148437499994,SIT
-3.5692421875,-1.6296484375,8.949632812499999,-0.0024224999999999997,-0.001736859375,-0.0020677343749999993,SIT
-3.55640234375,-1.62504296875,8.95083984375,-0.0004428906249999998,-0.002254734375,-0.0008337890624999997,SIT
-3.55120703125,-1.62595703125,8.9529765625,0.0030048906249999997,-0.002923953125,-0.005948828125,SIT
-3.545109375,-1.62196484375,8.9526796875,0.002103546875,-0.00192524609375,-0.0060250898437499995,SIT
-3.5414375000000002,-1.62196484375,8.955437499999999,0.0023648593749999998,-0.0024714374999999997,-0.003685328125,SIT
-3.5463242187499997,-1.6198046874999998,8.94898828125,0.00183016015625,-0.0002681093749999998,-0.00433758984375,SIT
-3.5754609375,-1.6050859375000002,8.9085078125,0.00044340625000000006,0.0014738750000000004,0.0017592890625000004,SIT2SLEEP
-3.62299609375,-1.59066015625,8.9054296875,0.0051382890625,0.0243423125,-0.0034931406249999997,SIT2SLEEP
-3.8614609375,-1.6213125,8.75738671875,-0.001921515625,0.040219265625,0.01347440625,SIT2SLEEP
-4.15108984375,-1.67154296875,8.557542968749999,-0.0652791875,0.09052495703125,0.0719701796875,SIT2SLEEP
-4.428453125,-1.59981640625,8.3488125,-0.107320109375,0.1053805625,0.1334141171875,SIT2SLEEP
-4.6169296875,-1.3289609375,8.2326328125,-0.11456046875,0.0994828828125,0.22097168359375,SIT2SLEEP
-4.68928125,-0.9208125,8.2035,-0.11010670312500001,0.038044656249999996,0.334712953125,SIT2SLEEP
-4.79503125,-0.47313671874999996,8.078109375,-0.12014577734375,0.03855264453125,0.43505440625,SIT2SLEEP
-4.778480468750001,-0.0331171875,8.05816015625,-0.1330345703125,0.037701140625,0.505359,SIT2SLEEP
-4.7944453125,0.36307421875,8.022265625,-0.1689374609375,0.030195765625,0.573139125,SIT2SLEEP
-4.835515625,0.70287890625,8.003257812500001,-0.2024015625,0.055448890625,0.61201759375,SIT2SLEEP
-4.81804296875,1.0524609375,7.99775,-0.224481015625,0.044596609375,0.617810734375,SLEEP
-4.71201171875,1.3968554687499999,8.068207031250001,-0.22513547656250002,0.038757671875,0.6059222343749999,SLEEP
-4.4904375,1.7819843750000002,8.21960546875,-0.16981159765625,-0.01786240625,0.5470232109375001,SLEEP
-4.25077734375,2.0908125,8.40166796875,-0.12428203125000001,-0.038743015625,0.488645890625,SLEEP
-4.06353515625,2.19009375,8.53008203125,-0.10864774218750001,-0.0455048828125,0.40195650781250003,SLEEP
-4.04391796875,2.1327734374999996,8.526101562500001,-0.1211148671875,0.012101148437499999,0.28972596875,SLEEP
-3.99120703125,1.99702734375,8.615,-0.11689164453125,0.029589968749999997,0.18626125,SLEEP
-4.0574296875,1.86033203125,8.617484375,-0.10701171875000001,0.019297828125,0.111680625,SLEEP
-4.0991367187500005,1.7662421875,8.615980468750001,-0.0765892265625,0.035996093750000006,0.04281333984375,SLEEP
-4.0816796875,1.7098515625,8.627027343750001,-0.03960065625,0.009748250000000002,-0.008725312499999999,SLEEP
-4.072796875,1.6721484375,8.638386718749999,-0.01335933203125,-0.004948328124999999,-0.022342648437499998,SLEEP
-4.0626953125,1.6393632812499999,8.648507812499998,-0.008270453125,-0.008749125,-0.020393234375,SLEEP
-4.0541015625,1.6136171875,8.65893359375,-0.0115949296875,-0.0060153164062499995,-0.00936441796875,SLEEP
-4.050117187500001,1.59796875,8.66045703125,-0.0094206875,-0.0062171249999999996,-0.005313726562499999,SLEEP
-4.04765625,1.58203515625,8.662617187499999,-0.00765084765625,-0.0014764648437499994,-0.0009161289062499997,SLEEP
-4.03016796875,1.57957421875,8.66721484375,-0.00475615625,-0.003139390624999999,-0.0007626562499999999,SLEEP
-4.0053359375,1.5866093749999999,8.67762890625,-0.0001913554687500001,-0.007651796874999999,-0.0011906484374999999,SLEEP
-3.9743515625000003,1.5906210937499998,8.69325390625,0.00341434375,-0.012095109375,-0.0025473281249999997,SLEEP
-3.9498125,1.6004492187500001,8.7073515625,0.0032938984374999997,-0.0142011484375,-0.00211718359375,SLEEP
-3.936015625,1.605984375,8.7181015625,0.0047770625,-0.012073906249999999,-0.002237078125,SLEEP
-3.923125,1.61121875,8.72668359375,0.0036244687499999997,-0.0088684375,-0.001956609375,SLEEP
-3.904109375,1.6195117187499999,8.7288203125,0.0030563671875,-0.007978375,-0.0002812265625000001,SLEEP
-3.88540625,1.6237890625,8.74230859375,0.0016040312499999998,-0.008449414062499999,0.0025934296874999996,SLEEP
-3.8746640625,1.6265625000000001,8.75088671875,0.00282484375,-0.009255359375,-0.0009012031250000002,SLEEP
-3.86393359375,1.6299140625,8.76036328125,0.0024189765625,-0.006599734374999999,-0.00336104296875,SLEEP
-3.8663984375,1.6397265625,8.76006640625,0.0029908046874999998,-0.005081796875,-0.0023237578125,SLEEP
-3.8832695312500003,1.6418828125,8.7566875,0.00312031640625,0.0009637109375000005,0.0001180937499999999,SLEEP
-3.893078125,1.6400312499999998,8.749625,0.0025762187499999995,0.0046725000000000004,-0.003153703125,SLEEP
-3.90689453125,1.640953125,8.74132421875,0.0010744257812499998,0.0053969609375000005,-0.0026118632812499997,SLEEP
-3.91978515625,1.63510546875,8.7315,-1.777343750000004e-05,0.006167289062500001,-0.00034792968750000004,SLEEP
-3.925015625,1.63723828125,8.725359375,-0.0012708359375,0.00631056640625,0.0008585234374999999,SLEEP
-3.93605859375,1.6363281250000001,8.724429687499999,-0.001469375,0.0045810625,0.003097171875,SLEEP
-3.945578125,1.63972265625,8.72073828125,4.251562499999999e-05,0.00450951171875,0.00024647265625000006,SLEEP
-3.95171484375,1.6366484374999999,8.7142890625,0.0016817109374999998,0.0037582812500000008,-0.001606703125,SLEEP
-3.95079296875,1.63696484375,8.71305859375,0.0014093515625,0.0017890976562500004,-0.0034840312499999997,SLEEP
-3.9486445312500003,1.6363593749999998,8.7130546875,0.00019046875,0.0002895312500000005,-0.0006739531249999999,SLEEP
-3.9501875,1.634515625,8.713363281249999,0.0013955859375,-0.0008000312499999995,-0.00496121875,SLEEP
-3.9532421875000003,1.6317421875,8.713355468749999,-0.000450078125,0.0004723281250000004,-0.0009027734374999997,SLEEP
-3.95169921875,1.62282421875,8.7148828125,-0.0015858632812500001,0.0005656914062500003,0.00026655859375000003,SLEEP
-3.9464687499999997,1.6219062499999999,8.71671484375,-0.001323046875,-0.0020476562499999996,-0.0045159375,SLEEP
-3.9409140625,1.62436328125,8.72009375,0.0011437929687500002,-0.0030902304687499996,-0.0031090546874999996,SLEEP
-3.9409296875,1.61790234375,8.725015625,0.0017739375000000001,-0.0026343046874999993,-0.0041995,SLEEP
-3.9369257812500003,1.61237890625,8.723796875,0.00082295703125,-0.0024259492187499996,-0.0068228593749999995,SLEEP
-3.9409375,1.60900390625,8.71645703125,-0.000934078125,-0.0011178281249999995,-0.003615578125,SLEEP
-3.947078125,1.6083945312499999,8.71310546875,-0.0010205664062499999,0.0022097382812500004,-0.0013144101562499997,SLEEP
-3.9513984375,1.60440625,8.7103359375,-0.00040079687499999995,0.0027847109375000005,-0.0012172812499999996,SLEEP
-3.9489296875,1.59948046875,8.7060546875,-0.00287450390625,0.0018553281250000004,0.0018622031250000001,SLEEP
-3.94616015625,1.6013242187499999,8.707285156249998,-0.001551484375,0.0002671093750000004,0.00053353125,SLEEP
-3.94430859375,1.6047109375,8.709117187499999,-0.0006714414062500001,-0.0002161718749999996,0.0012306796875,SLEEP
-3.945234375,1.6050156249999998,8.70883203125,0.0005585234375000001,0.00023237500000000043,0.0027713125000000003,SLEEP
-3.9599687500000003,1.59641015625,8.703015624999999,-0.0025961250000000003,0.0025426757812500003,0.0035333828125000003,SLEEP
-3.9673046875,1.5994765625,8.69534765625,-0.004765453125,0.00673565625,0.00549775,SLEEP
-3.974046875,1.6019374999999998,8.690765625000001,-0.0008904414062500001,0.00483186328125,0.0035006093750000002,SLEEP
-3.98200390625,1.6062382812499998,8.6935234375,0.0009785859375,0.003974578125,0.0022791640625,SLEEP
-3.9807773437500003,1.6111445312500001,8.6953515625,0.00063136328125,0.0020874140625,0.00164553125,SLEEP
-3.97954296875,1.61390234375,8.69779296875,-0.00100565625,0.00047584375000000035,0.005837562500000001,SLEEP
-3.98198828125,1.6197460937500001,8.69258203125,0.0012793359375,-0.00022060156249999966,0.0018193671875000002,SLEEP
-3.9878164062500003,1.62159765625,8.686152343749999,0.002538625,0.0021552890625000007,-6.823437499999994e-05,SLEEP
-3.9955078125,1.62251953125,8.683402343749998,0.00020883984375,0.0035826250000000003,0.0011273085937500002,SLEEP
-4.000734375,1.6206679687499999,8.677886718749999,0.0005311875,0.00259290625,-0.0017736874999999999,SLEEP
-3.99400390625,1.62312109375,8.6723828125,0.0007925468750000001,0.0022361718750000003,0.0006142500000000001,SLEEP
-3.98576171875,1.62190234375,8.67605859375,0.001782671875,-0.0021979687499999994,-0.0021112578124999996,SLEEP
-3.9799296875000003,1.61882421875,8.68278125,0.0010305351562499999,-0.0039008554687499997,-0.0035035234375,SLEEP
-3.96950390625,1.61665625,8.6855390625,-0.000864953125,-0.0042329375,-0.001238109375,SLEEP
-3.9636640625,1.6099257812499999,8.68923828125,0.0010996640625000002,-0.004976988281249999,-0.00592586328125,SLEEP
-3.95323046875,1.60442578125,8.69842578125,0.002218234375,-0.005565203124999999,-0.0113248125,SLEEP
-3.94005078125,1.5921796875,8.70825,0.0019348320312499998,-0.00744774609375,-0.0121618515625,SLEEP
-3.91306640625,1.5780820312500001,8.72205859375,-0.0017619375,-0.0097528125,-0.00952171875,SLEEP
-3.88516796875,1.565515625,8.73434765625,-0.0008381640625000002,-0.01359568359375,-0.011062781249999999,SLEEP
-3.85785546875,1.55141796875,8.75608984375,-0.002309546875,-0.013783601562500001,-0.0073361171875,SLEEP
-3.83024609375,1.5385351562499998,8.77600390625,-0.0007360898437500001,-0.01589159375,-0.013069234375,SLEEP
-3.8075312500000003,1.5271914062499998,8.79009765625,-0.000704125,-0.014728,-0.01183046875,SLEEP
-3.79220703125,1.5149375,8.79225390625,-0.00355949609375,-0.01090570703125,-0.0035438710937500005,SLEEP
-3.7762578125000004,1.5020703125,8.8023828125,-0.004596078125,-0.0075227031249999994,-0.0012277734375000003,SLEEP
-3.7634101562500004,1.49593359375,8.80452734375,-0.0050824882812499994,-0.00676716796875,-0.0005106093750000003,SLEEP
-3.7600703125,1.48795703125,8.80759765625,-0.0027857187499999996,-0.005327734375,-0.00043607812500000027,SLEEP
-3.7588398437499997,1.48765234375,8.80912890625,-0.00272721875,-0.0018468906249999996,9.374999999999889e-06,SLEEP
-3.7609882812500004,1.48580078125,8.810976562499999,-0.00010998437499999987,-0.0010169765624999997,-0.0009831875000000001,SLEEP
-3.7646757812500002,1.4888710937499998,8.81005078125,-0.0005818046874999999,0.0005599921875000005,0.0012906093749999999,SLEEP
-3.77140625,1.4885625,8.80209765625,0.0008547343750000001,0.0022578437500000003,-0.001214609375,SLEEP
-3.7778359375000004,1.4851875,8.80178515625,-0.0007721054687499998,0.0032428828125000008,0.0010615703125,SLEEP
-3.78060546875,1.4805898437499998,8.801796874999999,-0.0021617421875,0.0026365000000000004,0.0030339453125000004,SLEEP
-3.78643359375,1.47415625,8.80118359375,0.0007014101562500001,0.0005626875000000004,-0.00621051953125,SLEEP
-3.7925781250000004,1.468015625,8.798101562500001,0.0028527500000000003,-0.0002640312499999996,-0.013325375,SLEEP
-3.7913437500000002,1.462796875,8.79842578125,0.00059291015625,0.0012673789062500004,-0.006187167968749999,SLEEP
-3.7885703125,1.45603125,8.796890625,-0.00148240625,-0.0004183828124999996,-0.0032464453124999995,SLEEP
-3.7864179687500004,1.4486328125,8.796890625,-0.00138902734375,-0.0005465976562499997,-0.0020496367187499997,SLEEP
-3.7879609375,1.444328125,8.7993515625,-0.0015076718750000001,-0.0004919218749999996,-0.0022970624999999996,SLEEP
-3.7898046874999998,1.43389453125,8.7953515625,-0.0010710078125,-0.0006074882812499996,-0.0035571523437499994,SLEEP
-3.7959453125,1.429296875,8.794421875,-0.0008472421875,-0.0002179140624999996,-0.005116265625,SLEEP
-3.8027109375,1.42684375,8.78983203125,-0.0012597226562499999,0.0017588046875000004,-0.002632140625,SLEEP
-3.8085429687500003,1.42746875,8.781871093749999,0.001548125,0.0026276875000000002,-0.005627625,SLEEP
-3.80640234375,1.42928125,8.78217578125,0.0015925976562500002,0.0016884453125000005,-0.0030872539062499994,SLEEP
-3.8008632812500003,1.428984375,8.785570312499999,-0.0011695859374999998,0.0003369687500000004,0.004430765625,SLEEP
-3.79810546875,1.42928515625,8.784027343750001,-0.00095289453125,-0.0010504140624999995,0.0028694492187500004,SLEEP
-3.79225390625,1.4326640625,8.782492187499999,0.00018057812500000002,-0.0011412031249999996,0.0017615156250000003,SLEEP
-3.79441015625,1.4305273437500001,8.783417968750001,-0.00092550390625,-0.0003675664062499996,0.00357803515625,SLEEP
-3.79656640625,1.42869921875,8.78464453125,-0.0040228125,0.0009907031250000005,0.00807709375,SLEEP
-3.79626953125,1.42869140625,8.788023437499998,-0.003160359375,0.0014283906250000004,0.00541586328125,SLEEP
-3.7974960937500004,1.42747265625,8.790777343750001,-0.0027637812499999997,0.0007872187500000003,0.006288875,SLEEP
-3.79350390625,1.42655078125,8.7990625,-0.00192998828125,-0.00018264843749999968,0.004382175781250001,SLEEP
-3.78858984375,1.4253242187500001,8.8033359375,-0.0041817890625,-0.0008599687499999996,0.007094156250000001,SLEEP
-3.78458203125,1.4228867187499998,8.8113046875,-0.004897015625,-0.0007895781249999996,0.0098629375,SLEEP
-3.7802734375,1.4231874999999998,8.81651171875,-0.004524953125,-0.0016387499999999998,0.006493078125,SLEEP
-3.77534765625,1.4222656249999999,8.82109765625,-0.00258573046875,-0.0020425,0.00423331640625,SLEEP
-3.776890625,1.41888671875,8.826320312499998,-0.00149803125,-0.0021230234374999997,0.0023329140625,SLEEP
-3.7750429687500002,1.41614453125,8.8309140625,-0.0035316914062499998,-0.00036352734374999965,0.004418453125,SLEEP
-3.77134765625,1.4146210937500001,8.8303046875,-0.00038521874999999993,-0.0011401562499999995,-0.0030528125,SLEEP
-3.76734375,1.4152265625,8.835199218749999,0.0005768671875,-0.0019707812499999994,-0.0030990664062500004,SLEEP
-3.7614921875,1.4143125,8.83827734375,0.0013685312500000002,-0.0030672265624999994,-0.0048069921875,SLEEP
-3.75748046875,1.4133984375,8.838570312499998,-0.0016957421875000002,-0.0024262499999999996,0.0020491875,SLEEP
-3.75317578125,1.4133984375,8.8407265625,-0.0030076093750000003,-0.0005315624999999995,0.006877890625,SLEEP
-3.75071875,1.4140078125,8.838285156249999,-0.0027206835937500003,-0.0007461093749999995,0.00491533203125,SLEEP
-3.75379296875,1.414921875,8.83859375,-0.0015931328125,0.0008575703125000005,0.005780960937499999,SLEEP
-3.75809765625,1.4121796875000001,8.8404375,-0.0026871250000000003,0.0017985820312500004,0.00508277734375,SLEEP
-3.760234375,1.4091328125,8.845347656249999,-0.0028399375,0.0018575781250000007,0.0033134062500000004,SLEEP
-3.7681796875,1.41066015625,8.84075,-0.0007729296875000001,0.0007409882812500004,-0.00042880859375000004,SLEEP
-3.7798164062499997,1.41248828125,8.84134765625,0.0005375625000000001,0.0029640625000000006,-0.00042796874999999996,SLEEP2SIT
-3.7926796875,1.41616796875,8.836753906250001,0.00073417578125,0.0043369687500000005,-0.00044086328125,SLEEP2SIT
-3.7835117187500003,1.41892578125,8.81190625,0.000734515625,0.0066013750000000005,0.0013336562500000002,SLEEP2SIT
-3.740640625,1.566640625,8.813429687500001,0.01417331640625,-0.0091815234375,-0.0031474648437500004,SLEEP2SIT
-3.7814296875,1.79923046875,8.745984374999999,0.06888828124999999,-0.005832960937499999,-0.0019493593750000001,SLEEP2SIT
-3.78513671875,2.131140625,8.56517578125,0.1301503046875,-0.004775496093749999,-0.03266960546875,SLEEP2SIT
-3.8295703125,2.42015234375,8.453292968749999,0.197639359375,-0.026022453124999997,-0.0853619375,SLEEP2SIT
-3.850140625,2.463671875,8.44592578125,0.1803070078125,-0.06534398828124999,-0.15943061328125002,SLEEP2SIT
-3.996640625,2.3236640625,8.4213828125,0.132252921875,-0.07894684375,-0.2282876015625,SLEEP2SIT
-4.0772578125,1.99984375,8.3661875,0.0807823125,-0.055317753906249996,-0.31103905859375,SLEEP2SIT
-4.032539062500001,1.7492617187500001,8.337042968750001,0.09853048437499999,-0.068843453125,-0.425414609375,SLEEP2SIT
-4.0392890625,1.4689492187500002,8.336105468749999,0.14712701171875,-0.07547015234375,-0.52727982421875,SLEEP2SIT
-4.07759375,1.23003125,8.343773437500001,0.1737426484375,-0.0668415703125,-0.5923269531249999,SLEEP2SIT
-4.2145703125,0.9013046875,8.3100625,0.19009852734375002,-0.0398749453125,-0.6138440234375,SLEEP2SIT
-4.22437109375,0.48861328125,8.3600390625,0.15280403125,-0.027373468749999998,-0.6151348750000001,SIT
-4.22405078125,0.042171875,8.5436015625,0.11283949609374999,-0.05722968359375,-0.58580148828125,SIT
-4.1615234375000005,-0.43091796875,8.7195,0.045399757812500004,-0.0476177890625,-0.5299949609375,SIT
-4.1241328125,-0.67414453125,8.773414062499999,0.04080704296875,-0.0204438828125,-0.45600366015625005,SIT
-4.0042890625,-0.7331914062499999,8.800679687499999,0.089511796875,0.0017138593750000005,-0.378407171875,SIT
-3.8608515625,-0.5560703125,8.880968750000001,0.140097890625,-0.0223771875,-0.2983621015625,SIT
-3.86295703125,-0.45002734375,8.95940625,0.143868890625,-0.019062585937499998,-0.1842361328125,SIT
-3.82618359375,-0.31949218749999997,8.98757421875,0.08906921484375,-0.003600468749999999,-0.0712820625,SIT
-3.78756640625,-0.20398828125000001,9.015445312499999,0.059197828125,-0.01241359375,0.005706859374999999,SIT
-3.70419921875,-0.10353515625000001,9.05040625,0.03529587109375,-0.026737484375,0.0399756328125,SIT
-3.64166796875,-0.0551171875,9.07646875,0.023938078125,-0.034057531249999995,0.0403801171875,SIT
-3.6260390625000003,-0.040429687500000006,9.0740078125,0.0087187578125,-0.023224593749999998,0.028960980468749998,SIT
-3.6180937500000003,-0.021792968750000002,9.08042578125,0.0027110156250000003,-0.010316625,0.020256609374999998,SIT
-3.6245078125,-0.0175390625,9.080140624999999,0.0009301796875,-0.00469168359375,0.014309980468749999,SIT2STAND
-3.61288671875,0.011769531249999996,9.072167968750001,0.0034115234375,-0.0011500859374999994,0.006385984375,SIT2STAND
-3.64568359375,0.027957031249999997,9.1438828125,0.0127963828125,-0.0031388828124999995,0.0015810703124999998,SIT2STAND
-3.6889335937500003,-0.332765625,9.06486328125,-0.03468703125,0.009016968750000002,0.00018456249999999967,SIT2STAND
-3.4440703125,-1.01679296875,8.658796875,-0.20949926171875,-0.02073278125,-0.025117183593750002,SIT2STAND
-3.12997265625,-1.8905078125,8.00359375,-0.363247921875,-0.029997054687499997,-0.0845780703125,SIT2STAND
-2.80084375,-2.8334609375,7.21046484375,-0.48865887109375,-0.018225359375,-0.13767733593749998,STAND
-2.4861093750000003,-3.76391015625,6.41821875,-0.540290171875,0.01737909375,-0.15863475,STAND
-2.2400351562500003,-4.6924921875,5.6486875,-0.54512625,0.06349666796875,-0.15549429296875,STAND
-2.016296875,-5.62044140625,4.89785546875,-0.54370675,0.0860364609375,-0.14611359375,STAND
-1.7898359375000001,-6.53126953125,4.17,-0.5308058945312499,0.09532451953125,-0.13832442187500002,STAND
-1.58390625,-7.460714843750001,3.4737265625,-0.519927359375,0.09554404687500001,-0.13035453125000002,STAND
-1.41291796875,-8.39260546875,2.73055078125,-0.5244352382812499,0.09068654296875,-0.12075061328125,STAND
-1.1674453125000002,-9.04477734375,2.05384375,-0.4961367109375,0.08963678125,-0.10729809375,STAND
-1.2014375,-9.282902343750001,1.7112187499999998,-0.33539626171875,0.10012880859375001,-0.08883033984375001,STAND2SLEEP
-1.3565,-9.311109375000001,1.650234375,-0.17411815625,0.10930487500000001,-0.022485750000000002,STAND2SLEEP
-1.6371992187500002,-9.074523437500002,1.964359375,-0.00150992578125,0.11296976171875,0.059537671875,STAND2SLEEP
-2.008640625,-8.59151171875,2.62417578125,0.164281109375,0.0393959296875,0.1466657265625,STAND2SLEEP
-2.4183984375,-7.8912421875000005,3.43387109375,0.2860126484375,-0.05972789453125,0.25649650390625,STAND2SLEEP
-2.8183515625,-7.01233203125,4.0461875,0.308357046875,-0.112213421875,0.37986746875,STAND2SLEEP
-3.18456640625,-6.147472656250001,4.6943671875,0.33013427734375,-0.118746765625,0.45151361328125,STAND2SLEEP
-3.54803125,-5.11933203125,5.35480078125,0.31591255468749996,-0.1359863984375,0.4925753671875,STAND2SLEEP
-3.8216796875,-3.9343203125,5.977847656250001,0.3486061171875,-0.13425875781250002,0.5442227890625,STAND2SLEEP
-3.8918515625000003,-2.80140234375,6.5929414062500005,0.35419903125,-0.148924171875,0.60877071875,STAND2SLEEP
-3.92280859375,-1.7178203125,7.3076328125,0.315143703125,-0.1836716875,0.6930406250000001,STAND2SLEEP
-4.0178242187499995,-0.6924609375,7.951203124999999,0.2682518203125,-0.15834799218749998,0.76723696875,SLEEP
-4.014765625,0.1790546875,8.49180078125,0.2276990859375,-0.1470064375,0.767864046875,SLEEP
-3.96267578125,0.86391796875,8.70171875,0.137839140625,-0.122177125,0.717824046875,SLEEP
-3.7965781250000004,1.2693007812500001,8.657578125,0.02151184375,-0.059070835937499996,0.6100215078125,SLEEP
-3.596140625,1.5236093750000002,8.801617187500002,-0.016683164062500002,-0.025139265625,0.46415496093749997,SLEEP
-3.4049218750000003,1.69517578125,8.89231640625,-0.05316848046875,-0.03086182421875,0.3693146015625,SLEEP
-3.267015625,1.77633203125,8.9232890625,-0.0462736875,-0.01229259375,0.32128565625,SLEEP
-3.13860546875,1.66662890625,8.97201953125,-0.0852017578125,0.0016120664062499992,0.2695401484375,SLEEP
-3.1805820312499997,1.5676523437499998,9.024773437499999,-0.10886593750000001,0.012975468749999998,0.2002431328125,SLEEP
-3.31298828125,1.4855273437499998,9.0168359375,-0.082238328125,0.04736628125,0.1108938203125,SLEEP
-3.3467109375,1.48582421875,8.976703125,-0.035721984375,0.04398290625,0.025967671874999997,SLEEP2STAND
-3.3004375,1.5272031249999998,8.99201953125,0.0028353007812500007,0.0050416835937500005,-0.017510249999999998,SLEEP2STAND
-3.32187890625,1.71691015625,8.968421875,0.0408135625,-0.012839609375,-0.020568000000000003,SLEEP2STAND
-3.28571875,1.92073046875,8.88691015625,0.07988990625,-0.00786504296875,-0.02773262890625,SLEEP2STAND
-3.3730585937499997,2.0822343749999996,8.762191406249999,0.11930621875,-0.028002468750000002,-0.08184064062499999,SLEEP2STAND
-3.47419140625,2.0105703125,8.79039453125,0.11841166015625,-0.018740359374999998,-0.174210296875,SLEEP2STAND
-3.5250703125,1.8953828124999998,8.76312109375,0.09072411718750001,-0.053187929687499996,-0.269692859375,SLEEP2STAND
-3.6261953125,1.6466210937499999,8.76648828125,0.08084733203125,-0.04657262109375,-0.31566115625,SLEEP2STAND
-3.6317421875,1.1983515624999999,8.7054375,0.0394253125,-0.04978328125,-0.38331517187499997,SLEEP2STAND
-3.72212890625,0.689109375,8.620203125,0.009636109375000002,-0.04006727734375,-0.4705431484375,SLEEP2STAND
-3.7475585937500004,-0.06442187500000002,8.57391015625,0.0134382265625,0.002550117187500001,-0.5637892421875,SLEEP2STAND
-3.5738046875,-0.95646484375,8.14486328125,-0.0739185546875,0.006540648437500001,-0.65155723046875,SLEEP2STAND
-3.34671484375,-2.1038046875000003,7.50344140625,-0.20944300000000002,0.008961906250000004,-0.7088836093750001,SLEEP2STAND
-3.10490234375,-3.3461445312499998,6.8945,-0.34333543359374996,-0.010927222656249997,-0.7219918828125,STAND
-2.86126171875,-4.5841875000000005,6.3759531250000006,-0.39568278125,0.0359001328125,-0.6693716953125,STAND
-2.50727734375,-5.60866015625,5.739421875,-0.41295822656250003,0.0406872109375,-0.58507825390625,STAND
-2.23603515625,-6.54118359375,5.116671875,-0.379240375,0.070483859375,-0.4832895625,STAND
-1.879,-7.3998984375,4.47246875,-0.37048235546874997,0.0789328125,-0.43338164453125,STAND
-1.5967265625,-8.0382890625,3.86261328125,-0.342408125,0.06993596875000001,-0.3774122265625,STAND2SIT
-1.2982265625,-8.592097656249999,3.3115898437499998,-0.30989787890625,0.05831415234375,-0.29079394531249997,STAND2SIT
-0.96755859375,-8.813984375,2.8328789062500004,-0.29240279687500004,0.003729046875,-0.199214734375,STAND2SIT
-0.9332148437500001,-8.79253515625,2.875796875,-0.154531921875,-0.02423566796875,-0.095850328125,STAND2SIT
-1.12598828125,-8.50017578125,3.4510312499999998,0.051002046875000005,-0.0034702578125,0.005409703125000001,STAND2SIT
-1.3582890625000001,-7.7441171875000006,4.22577734375,0.2973792421875,0.040511078125,0.043986160156249995,STAND2SIT
-1.47169921875,-6.91512890625,4.903062500000001,0.427796578125,0.01709334375,0.076945359375,SIT
-1.63444140625,-6.1186015625,5.579132812499999,0.44002712109375,-0.011965246093750001,0.11733516796875,SIT
-1.7760546875,-5.33528125,6.2588867187499995,0.4400039765625,-0.01170078125,0.13298709375,SIT
-1.9323750000000002,-4.56543359375,6.93985546875,0.43448443750000004,-0.023119,0.13769605859375,SIT
-2.09787890625,-3.79037109375,7.63246875,0.43562698437499997,-0.021311218750000003,0.13813667187499998,SIT
-2.25328515625,-3.0009140624999997,8.3394921875,0.443621609375,-0.011725628906250002,0.132990203125,SIT2SLEEP
-2.4604609375,-2.32789453125,8.90830078125,0.43743953124999996,0.004882023437499999,0.1256669921875,SIT2SLEEP
-2.67439453125,-1.7042343750000002,9.266546875,0.374873734375,0.0403685859375,0.11842597656250001,SIT2SLEEP
-2.96153515625,-1.333390625,9.2748125,0.273705984375,0.07532359375,0.110558546875,SIT2SLEEP
-3.21896484375,-1.2325546875,9.045890625,0.08738156640625,0.09255973828125,0.1551333203125,SIT2SLEEP
-3.54319921875,-1.04846484375,8.88192578125,-0.03696675,0.108075046875,0.22483297656249998,SIT2SLEEP
-3.77152734375,-0.75771484375,8.78906640625,-0.07158276171875,0.1082830625,0.29595227734375,SIT2SLEEP
-4.03355859375,-0.34621484375,8.576968749999999,-0.098743734375,0.13167921875,0.385872046875,SIT2SLEEP
-4.03230078125,-0.008570312499999996,8.54787109375,-0.11083548046875,0.0992799921875,0.48406971875,SIT2SLEEP
-4.09480078125,0.3520625,8.491785156250002,-0.16828894531250002,0.07457974999999999,0.5593003828124999,SLEEP
-4.18151953125,0.692453125,8.436632812500001,-0.18393284375000002,0.09825537109375,0.61449199609375,SLEEP
-4.24983984375,1.0224062500000002,8.394046875,-0.190807078125,0.10058753125,0.623964078125,SLEEP
-4.263003906250001,1.34254296875,8.361265625,-0.19461146875,0.08190752734375,0.61838608984375,SLEEP
-4.1704765625,1.6927265625,8.4057109375,-0.1938776953125,0.06502930468750001,0.6075664296875,SLEEP
-3.9443359375,2.057625,8.53229296875,-0.147572640625,0.0099372734375,0.55017190234375,SLEEP
-3.69762890625,2.17713671875,8.63158984375,-0.122763625,-0.021006328125,0.46893215625,SLEEP2SIT
-3.5149765625000002,2.32268359375,8.6478359375,-0.12815421484374998,-0.02239683984375,0.35962277734375,SLEEP2SIT
-3.4009609375,2.45997265625,8.6913515625,-0.051279390625,-0.02032034375,0.24930165625,SLEEP2SIT
-3.5952734375000004,2.624234375,8.520035156250001,0.017106105468750004,0.005078480468750001,0.1074220078125,SLEEP2SIT
-3.79787890625,2.70421875,8.448023437500002,0.13648865625,0.026402953125,-0.064656421875,SLEEP2SIT
-3.959703125,2.4505429687499998,8.391023437500001,0.15257091796875,-0.034800640625,-0.2703771484375,SLEEP2SIT
-4.08813671875,2.1306953125,8.35117578125,0.121596328125,-0.054935039062499996,-0.3946475546875,SLEEP2SIT
-4.23340234375,1.78847265625,8.255535156250001,0.129884296875,-0.05924477734375,-0.46607094921875003,SLEEP2SIT
-4.3927734375,1.4756953125,8.181988281250002,0.171715078125,-0.035972515625,-0.54439703125,SIT
-4.49203125,1.22357421875,8.177703125,0.21473811328125,-0.04032809765625,-0.5997568984375,SIT
-4.54810546875,1.02046875,8.191183593749999,0.2435950703125,-0.0600338671875,-0.6005540312500001,SIT
-4.62101953125,0.7576015625,8.20067578125,0.24969418359374998,-0.0741157265625,-0.58665558203125,SIT
-4.5817851562500005,0.34950781249999996,8.30152734375,0.2083515625,-0.081519234375,-0.58184115625,SIT2STAND
-4.52814453125,-0.05102734375,8.51391796875,0.16237010937500002,-0.119214265625,-0.56034905859375,SIT2STAND
-4.333191406249999,-0.3608046875,8.714359375,0.10325734375000001,-0.1064976484375,-0.4859650546875,SIT2STAND
-4.32031640625,-0.76897265625,8.741015625000001,0.05880940625000001,-0.05981905078125,-0.33962405078124996,SIT2STAND
-3.9834921875,-1.3598320312499999,8.459375,-0.08055742187500001,-0.05462646875,-0.232195125,SIT2STAND
-3.5952265625,-1.9798046875000002,7.97240234375,-0.21237666796875,-0.073199765625,-0.21975147656250002,SIT2STAND
-3.099078125,-2.79962890625,7.3576171875,-0.3706435859375,-0.08514546875,-0.1761547421875,STAND
-2.6951640625,-3.6543828125,6.716171875,-0.45982896875,-0.052537328125000005,-0.1420930078125,STAND
-2.34182421875,-4.556011718750001,6.09587109375,-0.49017920312499996,-0.002469015624999999,-0.13642656250000001,STAND
-2.0467187499999997,-5.46099609375,5.4532265625,-0.49389904296875,0.02825219921875,-0.14809831250000002,STAND
-1.76449609375,-6.360808593750001,4.80808984375,-0.4926217109375,0.049402679687500006,-0.1520526484375,STAND
-1.48931640625,-7.2850625,4.1436484375,-0.49463399999999996,0.05615103125,-0.1519698515625,STAND
-1.2187421875,-8.22280859375,3.42892578125,-0.51126059375,0.056187406249999995,-0.14700471874999999,STAND
-0.83598046875,-8.927699218750002,2.73262109375,-0.5028266953125,0.0584618671875,-0.15137546875,STAND
-0.69503125,-9.1526484375,2.31580859375,-0.34528832031249995,0.049572632812499996,-0.15001073437499998,STAND
-0.7155234375,-9.366875000000002,2.173921875,-0.2005868125,0.09233391796875,-0.08054826953125001,STAND
-0.8537109375,-9.343890625000002,2.195390625,-0.068518625,0.099264203125,-0.025881812500000004,STAND2SLEEP
-1.0045,-9.24242578125,2.24014453125,-0.006732484375,0.07137275,0.02930677734375,STAND2SLEEP
-1.2573125,-8.992343750000002,2.42587109375,0.046731804687499996,0.039846023437499996,0.0707206484375,STAND2SLEEP
-1.5879765625000002,-8.67910546875,2.88649609375,0.10988599609375001,-0.015207066406249999,0.14517319921875,STAND2SLEEP
-2.04427734375,-8.08791796875,3.4988281249999997,0.1716564375,-0.08760346875,0.251634296875,STAND2SLEEP
-2.4493945312500003,-7.224609375000001,4.07042578125,0.2720067109375,-0.117617375,0.34616479296875,STAND2SLEEP
-2.86373046875,-6.317484375,4.6971718749999996,0.2959933984375,-0.11249728906249999,0.41583060937500005,STAND2SLEEP
-3.1505546875,-5.175078125,5.35699609375,0.33424271484375,-0.14285728515624999,0.4837408515625,STAND2SLEEP
-3.48426953125,-4.031125,5.9763671875,0.349434,-0.156262796875,0.579883609375,STAND2SLEEP
-3.64976171875,-2.8203515625,6.5963359375,0.3404416171875,-0.13196542578125,0.67318816015625,STAND2SLEEP
-3.71288671875,-1.74383203125,7.3094726562500005,0.3128328828125,-0.17451783593749998,0.7333100078125,STAND2SLEEP
-3.8881796874999996,-0.70621875,7.964707031250001,0.27446039062500005,-0.16028405859375,0.7808205078125,SLEEP
-3.9157734375,0.17140625,8.468843750000001,0.225598203125,-0.13997270312500001,0.785351,SLEEP
-3.8495859375,0.97761328125,8.7305546875,0.1552236328125,-0.11889355859374999,0.71305371484375,SLEEP
-3.5936796875,1.59383984375,8.75843359375,0.08576909375,-0.0578229453125,0.6123464453125,SLEEP
-3.38191796875,1.8242304687500002,8.853441406249999,0.0012117656250000021,-0.0291266015625,0.49982205859375,SLEEP2STAND
-3.03500390625,2.225296875,8.907984375,-0.0247575,-0.06218946875,0.41933123437500003,SLEEP2STAND
-2.8845390625,2.459765625,8.85159765625,0.0052596953125,-0.038536878906249995,0.34289491796875,SLEEP2STAND
-2.70587890625,2.75153515625,8.74464453125,0.0378960390625,-0.055944234375,0.1972345078125,SLEEP2STAND
-2.73192578125,2.83428125,8.74371875,0.10405004296874999,-0.0982273515625,0.008969257812500001,SLEEP2STAND
-2.83093359375,2.6933359375,8.7578359375,0.0709639375,-0.087842171875,-0.181330703125,SLEEP2STAND
-2.87322265625,2.42770703125,8.835070312500001,0.03860146875,-0.12192983984374998,-0.33025247265625,SLEEP2STAND
-2.9507499999999998,1.88536328125,8.77775390625,0.0033661640624999952,-0.13341253906249997,-0.41648140624999996,SLEEP2STAND
-2.86491796875,0.9446015625,8.55956640625,-0.09737188671875001,-0.10533523828125,-0.5205000078124999,SLEEP2STAND
-2.6424492187500004,0.021597656250000007,8.01373046875,-0.2167655625,-0.086959,-0.6247931718749999,SLEEP2STAND
-2.4043515625,-1.03288671875,7.31835546875,-0.31388087109375,-0.042620167968750004,-0.6989648789062499,STAND
-2.2750390625000003,-2.2703281250000003,6.625425781250001,-0.38358846875,0.03909749218749999,-0.7370165234374999,STAND
-2.0917734375,-3.5908242187500004,5.98242578125,-0.44478958203125,0.08083250390625,-0.735245015625,STAND
-2.023109375,-4.998347656250001,5.4436367187500005,-0.5002467500000001,0.116608734375,-0.679707859375,STAND
-1.78160546875,-6.3473203125,4.89076953125,-0.5617886562500001,0.15463748828124999,-0.59293091015625,STAND
-1.55971484375,-7.3901523437500005,4.16323046875,-0.54043071875,0.16880483593749998,-0.47868714062499995,STAND
-1.33200390625,-8.2338515625,3.40991796875,-0.45959332421875,0.21481786328125002,-0.38049395703125,STAND2SIT
-1.0506640624999999,-8.84771484375,2.77522265625,-0.412384109375,0.192496109375,-0.33151134374999996,STAND2SIT
-0.9314453125,-8.9172734375,2.44822265625,-0.28521946484375005,0.15572703515625,-0.23625730078125,STAND2SIT
-1.0745625,-8.79040234375,2.7240625,-0.080866,0.12553028906250002,-0.085658546875,STAND2SIT
-1.3510039062499999,-8.312000000000001,3.4240234375,0.14713182421875,0.08139687109375,0.0385749296875,STAND2SIT
-1.6476015625,-7.526484375000001,4.13748046875,0.34317628125,0.038967734375,0.127242140625,SIT
-1.849859375,-6.7232109375,4.85921875,0.41754328906250004,-0.010846980468749998,0.171851890625,SIT
-1.9795039062500002,-5.918421875000001,5.57791015625,0.4360819921875,-0.0443838046875,0.17764453125,SIT
-2.1002734375,-5.119765625,6.29905078125,0.440496375,-0.06203064453125,0.17641724218750002,SIT
-2.2103046875,-4.318035156250001,7.0201523437499995,0.441624640625,-0.07337128125,0.172619703125,SIT
-2.3310703125,-3.5190625,7.75105078125,0.444711578125,-0.07672198828125,0.16627972265625,SIT
-2.4702070312499997,-2.6897499999999996,8.453468749999999,0.44768923437499997,-0.07218287500000001,0.1660529453125,SIT2SLEEP
-2.6829023437500004,-2.0682265625,9.0271640625,0.43959881640625,-0.04032355078125,0.165133109375,SIT2SLEEP
-2.93054296875,-1.5269921875,9.21226171875,0.3430494375,0.0002239687500000002,0.15458592187499998,SIT2SLEEP
-3.185515625,-1.24963671875,9.1227890625,0.16692691015625,0.061325261718749996,0.17785160156250002,SIT2SLEEP
-3.3004453125,-1.011609375,9.021953125,0.0335417734375,0.060530820312500004,0.214272625,SIT2SLEEP
-3.41078125,-0.7273125,8.9759921875,-0.022395562499999997,0.04181455078125,0.28216268359375,SIT2SLEEP
-3.65625,-0.3991953125,8.85005078125,-0.055286656249999996,0.06076340625,0.366555296875,SIT2SLEEP
-3.7880351562500003,-0.031824218749999994,8.741281249999998,-0.086589109375,0.107331609375,0.44597125390625003,SIT2SLEEP
-3.7150859375,0.299984375,8.7250703125,-0.1035258828125,0.062161921875000005,0.5136162265625,SIT2SLEEP
-3.68901953125,0.60940625,8.708218749999999,-0.1370962421875,0.03453078515625,0.59586756640625,SLEEP
-3.7255000000000003,0.8925,8.7020859375,-0.15852177734375,0.06523855468749999,0.6485987578125,SLEEP
-3.69698828125,1.17680078125,8.67603515625,-0.17293175390624999,0.0577357578125,0.6544215273437499,SLEEP
-3.5275000000000003,1.5040234375,8.753875,-0.16001067578125,0.039518492187500004,0.626589375,SLEEP
-3.282921875,1.8661718749999998,8.8730859375,-0.1081404765625,-0.010274164062499999,0.56991416796875,SLEEP
-3.075125,2.05061328125,8.92580859375,-0.08696203515625,-0.0251425859375,0.5001017499999999,SLEEP
-2.9605,2.1162109375,8.968109375000001,-0.10116935546875,-0.002595812499999999,0.40450637109375004,SLEEP2SIT
-2.843421875,2.3243203125000003,8.92826171875,-0.05919930078125,0.008888984375,0.2917538671875,SLEEP2SIT
-2.7793750000000004,2.5621328125,8.8212890625,0.034605683593750006,-0.01258826171875,0.17579639453125,SLEEP2SIT
-2.9335117187499997,2.85327734375,8.574265625,0.14373776953125,-0.0174718671875,0.0487214296875,SLEEP2SIT
-3.21637890625,2.8937265625,8.51816796875,0.17958229296875,-0.01934283203125,-0.13995904296875,SLEEP2SIT
-3.36409765625,2.7080625,8.4807890625,0.14855418750000002,-0.078538765625,-0.325895359375,SLEEP2SIT
-3.57954296875,2.45714453125,8.42994921875,0.13074355859375,-0.09281997656249999,-0.4031911796875,SLEEP2SIT
-3.8216718750000003,2.12044921875,8.26720703125,0.10776647656249999,-0.0881131796875,-0.46636384375,SLEEP2SIT
-4.080046875,1.76197265625,8.13602734375,0.147871953125,-0.035211066406250005,-0.5671808359374999,SLEEP2SIT
-4.19959765625,1.4350703125000002,8.113328125,0.205410640625,-0.04383753125,-0.67172478125,SIT
-4.32344140625,1.14891796875,8.093078125,0.23028815234375,-0.08089288671874999,-0.684956578125,SIT
-4.43773046875,0.7070624999999999,8.12832421875,0.213441875,-0.0774543046875,-0.6583430078125,SIT
-4.44721875,0.18585937499999997,8.276667968749999,0.14818767578125,-0.10474085937500001,-0.6272476835937499,SIT
-4.491375,-0.41321875,8.53840234375,0.053696921875000005,-0.09436575,-0.5611540625,SIT2STAND
-4.37001953125,-0.74412109375,8.61594140625,0.018821863281250004,-0.057907015625,-0.4593087421875,SIT2STAND
-4.3218828125,-0.943921875,8.691343750000001,0.07418673437500001,-0.022299281249999997,-0.3295772265625,SIT2STAND
-4.10398046875,-1.5939257812499998,8.57486328125,-0.01545070703125,-0.02186870703125,-0.254782515625,SIT2STAND
-3.78617578125,-2.1544765625,8.18291015625,-0.14645971875,-0.045544109375,-0.23458034374999998,SIT2STAND
-3.35771875,-2.84342578125,7.578863281249999,-0.31535515234375,-0.09105006640625,-0.15324032031249998,STAND
-3.0647265624999998,-3.61022265625,6.95459375,-0.4503669453125,-0.079210046875,-0.07650458593750001,STAND
-2.8462031249999997,-4.43126953125,6.30612109375,-0.4812242890625,-0.01008522265625,-0.047999671875000004,STAND
-2.5845078125,-5.261761718750001,5.6937929687499995,-0.482693375,0.020893765624999998,-0.06598578125,STAND
-2.36540625,-6.10208203125,5.0471210937499995,-0.48441309765625,0.0282853125,-0.08076386328125,STAND
-2.168640625,-6.94054296875,4.39584375,-0.48107196875,0.0474481796875,-0.10267285937500001,STAND
-2.0111054687500003,-7.811191406250001,3.7139453125000004,-0.47984285546875,0.0648759765625,-0.1071983984375,STAND2SLEEP
-1.8367421874999998,-8.542695312500001,2.96003515625,-0.5007552656250001,0.07066768749999999,-0.10197321875,STAND2SLEEP
-1.811015625,-8.65669921875,2.5886015625,-0.35941156640625005,0.073474203125,-0.08283238671875001,STAND2SLEEP
-2.0500546875,-8.52795703125,2.802203125,-0.13598059375,0.0698642421875,0.013022304687499996,STAND2SLEEP
-2.48216015625,-8.049277343750001,3.45591796875,0.09441821875,0.05056384375,0.13661658593749998,STAND2SLEEP
-2.8517578125,-7.25153515625,4.0838984375,0.2783425,-0.005717078125000002,0.251106453125,STAND2SLEEP
-3.20848828125,-6.434183593749999,4.6346328125,0.3028699296875,-0.0458757734375,0.33883193359374997,STAND2SLEEP
-3.5977070312499997,-5.5436328125,5.18873046875,0.29919360156249997,-0.0641387265625,0.3962005078125,STAND2SLEEP
-3.93021484375,-4.54281640625,5.768265625000001,0.28108003125,-0.07326550781249999,0.4653401484375,STAND2SLEEP
-4.17384375,-3.40806640625,6.374761718749999,0.294368859375,-0.105174546875,0.5518048281250001,STAND2SLEEP
-4.299492187499999,-2.1688125,6.93315234375,0.29667720703125,-0.10691978515625,0.65070256640625,STAND2SLEEP
-4.25692578125,-1.1229453125,7.6858359375,0.28758792187500004,-0.14750526562500002,0.7412567578125,STAND2SLEEP
-4.33018359375,-0.23427734375,8.181089843750001,0.1991329609375,-0.14928956640625,0.80023971875,STAND2SLEEP
-4.23056640625,0.617625,8.46701953125,0.11660087499999999,-0.0954851875,0.788593484375,SLEEP
-3.93086328125,1.191546875,8.55221484375,0.035069757812500005,-0.07092246093750001,0.690882171875,SLEEP
-3.795734375,1.5178515625,8.611343750000001,-0.053105828125,-0.039127406249999996,0.5971813359375,SLEEP
-3.5551679687499997,1.81381640625,8.69101171875,-0.0881228828125,-0.01628095703125,0.52090362109375,SLEEP2STAND
-3.20211328125,2.05064453125,8.82461328125,-0.084064734375,-0.03448346875,0.458864203125,SLEEP2STAND
-2.93546484375,2.379765625,8.871804687500001,-0.0479080625,-0.06947417578125001,0.38841701171875,SLEEP2STAND
-2.76691015625,2.629828125,8.78384765625,-1.4804687499997676e-05,-0.02685090625,0.2946808359375,SLEEP2STAND
-2.6492421875,2.839140625,8.70630859375,0.0848595546875,-0.07633627734375001,0.1281733125,SLEEP2STAND
-2.80737109375,2.86977734375,8.73329296875,0.08453001562500001,-0.07589721875,-0.057927796875,SLEEP2STAND
-2.7537304687499997,2.7496484375,8.75381640625,0.08856713281249999,-0.111037640625,-0.22736029687499998,SLEEP2STAND
-2.75188671875,2.53703125,8.83749609375,0.054874101562500006,-0.15637451562500002,-0.3145115859375,SLEEP2STAND
-2.8367695312500003,2.0942929687499996,8.79366015625,0.007233253906250004,-0.139516671875,-0.354914203125,SLEEP2STAND
-2.81591796875,1.25252734375,8.67078125,-0.0759075625,-0.10929168750000001,-0.44354953125,SLEEP2STAND
-2.60873828125,0.35771484375,8.227308593750001,-0.2096327890625,-0.09415358984375,-0.5374965703125,SLEEP2STAND
-2.5165078125,-0.6896953125,7.5552265625,-0.3021480859375,-0.037045671875000005,-0.6181650546874999,STAND
-2.4601406249999997,-1.9485625,6.947828125,-0.38719569140625,0.06446448437499999,-0.6588668750000001,STAND
-2.3326562500000003,-3.2803359375,6.3900781250000005,-0.4470591875,0.10411396875000001,-0.6702848124999999,STAND
-2.24562109375,-4.7423906250000005,5.96778515625,-0.529250671875,0.17682916015625,-0.6184380625,STAND
-2.0540859375,-5.9629453125000005,5.35423046875,-0.558249015625,0.2211582578125,-0.5420429375,STAND
-1.9869765625,-6.94416796875,4.63890625,-0.50225276171875,0.276577203125,-0.44822396875000003,STAND2SIT
-1.83896875,-7.693144531250001,4.0431406249999995,-0.43028487499999996,0.29650423437499995,-0.395379609375,STAND2SIT
-1.70258984375,-8.19911328125,3.8326054687499997,-0.301826421875,0.26488982031249997,-0.338115125,STAND2SIT
-1.65292578125,-8.053546875,3.88865625,-0.123291375,0.19644453125,-0.2113285546875,STAND2SIT
-1.7577382812500002,-7.410871093750001,4.3593984375,0.1320435390625,0.17447985156249998,-0.07686375781249999,STAND2SIT
-1.868046875,-6.71946875,5.01432421875,0.322096703125,0.122964859375,0.0350183125,SIT
-1.96948046875,-5.9021015625,5.70478515625,0.4136914296875,0.04917375390624999,0.11276415625000001,SIT
-2.0623398437500002,-5.10221875,6.38482421875,0.43144042187500004,-0.0121075390625,0.14080961718749999,SIT
-2.1469218750000003,-4.29529296875,7.062398437500001,0.434394375,-0.0509096953125,0.1518063828125,SIT
-2.2385625,-3.4828203125,7.7424453125,0.43379159375,-0.06666778124999999,0.155310328125,SIT
-2.328671875,-2.684140625,8.43873828125,0.43679192578125,-0.0745721015625,0.15243375390625,SIT
-2.4304179687499996,-2.0193984375,9.0614765625,0.438276375,-0.07593478125,0.1446214609375,SIT
-2.4766953125,-1.37184375,9.38541796875,0.36618480859375,-0.06276501171875,0.13774623046875,SIT2SLEEP
-2.538,-0.9311640625,9.473078124999999,0.27615590624999997,-0.012581625,0.09190290625,SIT2SLEEP
-2.77490234375,-0.87507421875,9.30453515625,0.14606367578125,0.033189937499999995,0.06531366015625,SIT2SLEEP
-3.074015625,-0.92655859375,9.13751171875,-0.014420867187499995,0.09038212500000001,0.0962823046875,SIT2SLEEP
-3.36209375,-0.7237851562500001,8.99715234375,-0.049806765625,0.1121357578125,0.13886419140625,SIT2SLEEP
-3.59161328125,-0.4296796875,8.90276953125,-0.0429476875,0.11827717187499999,0.23208284375,SIT2SLEEP
-3.9177148437500002,-0.05713281250000001,8.71554296875,-0.067138078125,0.140588828125,0.34010255859375,SIT2SLEEP
-3.8297421875,0.3009921875,8.6260625,-0.0994863984375,0.13217567187499998,0.44602066406249996,SIT2SLEEP
-3.86251953125,0.57884375,8.596660156250001,-0.15468971484375,0.05614421484375,0.55663790234375,SIT2SLEEP
-3.9415820312500003,0.88794921875,8.5436484375,-0.1909895,0.123257359375,0.653336046875,SLEEP
-3.98571484375,1.1786796875,8.51637109375,-0.190243453125,0.11981962109375,0.64877958984375,SLEEP
-4.00657421875,1.4479648437500001,8.46644140625,-0.19903546875,0.1129120859375,0.6487781875,SLEEP
-3.8815546875,1.7426718749999999,8.5237421875,-0.20316362109375,0.09089819140625001,0.64076043359375,SLEEP
-3.6780625000000002,2.08519140625,8.61293359375,-0.15587589062499999,0.0330920625,0.58818225,SLEEP
-3.45434375,2.2316328125,8.7042734375,-0.12944414843750002,0.016826093749999996,0.51986341015625,SLEEP2SIT
-3.22972265625,2.46271875,8.702753906249999,-0.115775953125,-0.014032171875000003,0.4199216953125,SLEEP2SIT
-3.055625,2.7223085937500002,8.59180859375,-0.031413984374999995,0.017391941406249996,0.31878634375,SLEEP2SIT
-3.25451171875,3.00948828125,8.36224609375,0.110209,-0.031263140625000005,0.15904412499999998,SLEEP2SIT
-3.58610546875,3.14158984375,8.24701171875,0.18615427343750002,0.03321147265625,-0.03964115234375001,SLEEP2SIT
-3.649546875,2.7972109375,8.258042968749999,0.14477127343750001,-0.0821856953125,-0.2682610234375,SLEEP2SIT
-3.82178125,2.3443632812499997,8.120125,0.07375269140625,-0.09506698046874999,-0.3912277421875,SLEEP2SIT
-3.9409765625,1.91972265625,8.056664062500001,0.09309276562500002,-0.06308765625,-0.50925965625,SLEEP2SIT
-4.033515625,1.56862109375,8.029078125,0.16131914453125,-0.0624209921875,-0.623127484375,SIT
-4.0696640625,1.33334765625,8.05175,0.21336075000000002,-0.070773375,-0.6448531875,SIT
-4.08588671875,1.1112734375,8.098,0.24133146484375,-0.09278366796875,-0.6259163203125,SIT
-4.13033203125,0.7108125,8.13291015625,0.231555046875,-0.097214921875,-0.621615296875,SIT
-3.992109375,0.18868749999999998,8.37346484375,0.1628455625,-0.12443278906250001,-0.6327655312499999,SIT
-3.9053710937500004,-0.44378125,8.732941406250001,0.0705921484375,-0.1269504921875,-0.5985555546875,SIT
-3.7331328125,-0.8825625,8.92108984375,0.007134886718750006,-0.10009196875,-0.51308348828125,SIT
-3.5817265625,-0.8457578125,8.924453125000001,0.07332951562500001,-0.030479906249999997,-0.386299203125,SIT2STAND
-3.4036640625,-0.65178515625,9.085339843749999,0.1633502734375,-0.022030832031250003,-0.27039082421875,SIT2STAND
-3.26575,-0.41063281250000006,9.2207890625,0.1695503203125,-0.049527796874999995,-0.1633837890625,SIT2STAND
-3.23173046875,-0.49676562500000004,9.356242187500001,0.10830830078124999,-0.055005015625,-0.034646179687499994,SIT2STAND
-3.063484375,-1.12010546875,9.07582421875,-0.11709417187499999,-0.060385999999999995,0.0351984375,SIT2STAND
-2.80789453125,-1.81548828125,8.45799609375,-0.3107570859375,-0.048014953125,-0.02408516015625,SIT2STAND
-2.5703906250000004,-2.7008789062500003,7.70809375,-0.446738515625,0.00897059375,-0.0905575390625,STAND
-2.3803789062500003,-3.5792109375,7.0268359375,-0.482662421875,0.0667893984375,-0.12045138281250001,STAND
-2.19069140625,-4.46,6.35199609375,-0.48446934375,0.087587828125,-0.116143375,STAND
-2.0221484375,-5.33804296875,5.671042968749999,-0.48659983593749995,0.09672444921875001,-0.11028571484375,STAND
-1.86953125,-6.22283203125,4.98271484375,-0.4886219765625,0.10151881250000001,-0.106942109375,STAND
-1.7423710937499999,-7.0913515625,4.2977734375,-0.49030669140625,0.1062197578125,-0.10645381640625,STAND
-1.5833710937499998,-7.988066406250001,3.63183984375,-0.482212203125,0.10817334375,-0.09825853125,STAND
-1.4031718750000002,-8.7842421875,2.8540351562499997,-0.49887777343749995,0.09579459375,-0.0908101015625,STAND2SLEEP
-1.3722265624999999,-8.908347656250001,2.421921875,-0.367650015625,0.097381359375,-0.10490546093749999,STAND2SLEEP
-1.56590234375,-8.91170703125,2.5362421875,-0.14664487109375,0.12285808203125001,-0.0360336875,STAND2SLEEP
-2.0329609375,-8.54424609375,3.0759374999999998,0.055234078125,0.049854140624999994,0.10774517187499999,STAND2SLEEP
-2.5070625000000004,-7.88351171875,3.6622304687500002,0.18254815624999998,-0.039837660156249996,0.2774109140625,STAND2SLEEP
-2.8754453125,-7.0526757812500005,4.226738281249999,0.2451200390625,-0.10615769531250001,0.3703739140625,STAND2SLEEP
-3.23798828125,-6.14648046875,4.84305859375,0.26597262109375003,-0.13713830468750002,0.4358277109375,STAND2SLEEP
-3.5450546875,-4.9541015625,5.453234375,0.3034845625,-0.159326625,0.5001245,STAND2SLEEP
-3.69795703125,-3.7249453125000005,6.0263359375,0.3467480390625,-0.16974542968749998,0.58960566796875,STAND2SLEEP
-3.7766718750000003,-2.48721484375,6.62881640625,0.3293994140625,-0.17397585156249998,0.6870614296875,STAND2SLEEP
-3.81342578125,-1.3444960937500001,7.28832421875,0.29187705468749997,-0.16988253125,0.77425141015625,SLEEP
-3.8474414062499998,-0.28237109375,7.927296875,0.256993125,-0.1681011875,0.83006128125,SLEEP
-3.84957421875,0.63203515625,8.4237734375,0.203423734375,-0.15154709375,0.82601665625,SLEEP
-3.66325,1.46121484375,8.6588203125,0.13617281250000002,-0.1135857734375,0.7532275078125,SLEEP
-3.37180859375,1.99866796875,8.706636718750001,0.06886975390625,-0.05853145703125,0.61799634375,SLEEP
-3.2035390625,2.3038203125,8.790624999999999,0.007932703124999997,-0.017795578125,0.5065829843749999,SLEEP
-3.0187539062499997,2.54277734375,8.83260546875,-0.02603971484375,0.007211882812500001,0.43033663671875,SLEEP
-2.8661406250000003,2.53726171875,8.857765624999999,-0.0513834296875,0.0244854453125,0.36410182031250005,SLEEP
-2.809140625,2.41130078125,8.91109375,-0.10364881249999999,0.02938501953125,0.275241296875,SLEEP2STAND
-2.69912890625,2.382828125,9.01776171875,-0.09161509375,0.010192078125,0.167577484375,SLEEP2STAND
-2.709265625,2.540359375,8.95372265625,-0.02407919140625,-0.007763355468749999,0.0689729296875,SLEEP2STAND
-2.74176953125,2.76619140625,8.831132812500002,0.0758488203125,-0.009945726562499998,-0.039568320312499995,SLEEP2STAND
-2.76076953125,3.0729687500000002,8.635921875,0.168289515625,-0.07661299609375,-0.1579503046875,SLEEP2STAND
-2.807046875,2.9896171875,8.64665234375,0.162570859375,-0.10132140625,-0.268049890625,SLEEP2STAND
-2.8499375000000002,2.67926171875,8.7054765625,0.0713245078125,-0.15559541015625,-0.36264051953125,SLEEP2STAND
-2.90051953125,2.4111796875000002,8.74498828125,0.028688257812500003,-0.15224045312499998,-0.4060588671875,SLEEP2STAND
-2.9856992187499998,1.94852734375,8.72016015625,0.01593172265625,-0.14460444140625,-0.43663443359375,SLEEP2STAND
-2.94615625,1.0935898437499998,8.6190078125,-0.058538890625,-0.1282968125,-0.5103901406250001,SLEEP2STAND
-2.72058984375,0.19788281249999998,8.173703125000001,-0.18702387890625,-0.1306262109375,-0.6065533867187499,SLEEP2STAND
-2.5894375000000003,-0.9289179687500001,7.54206640625,-0.28504234375,-0.0831845390625,-0.6834146249999999,SLEEP2STAND
-2.39513671875,-2.24694921875,6.9104375,-0.39160760156249996,-2.5062499999997743e-05,-0.73660201171875,STAND
-2.20266015625,-3.6299296875000002,6.397414062499999,-0.459482359375,0.03312990625,-0.7228004687499999,STAND
-1.9890546875,-5.095375,5.9416953125,-0.53460117578125,0.09082714062500001,-0.6542067421875,STAND
-1.6663671875,-6.2375,5.33337109375,-0.5676879453125,0.1225420625,-0.5392647578125,STAND
-1.5171328125,-7.07474609375,4.6358398437499995,-0.47641956640625,0.17020853515625,-0.41614672656249996,STAND
-1.3289765625,-7.9147539062500005,3.96285546875,-0.4162733125,0.18384984375000002,-0.3372884375,STAND
-1.12486328125,-8.629128906250001,3.34258203125,-0.40782838671875005,0.19377980078124998,-0.2915722109375,STAND
-0.9970625000000001,-8.995980468750002,2.76582421875,-0.338714703125,0.1667209609375,-0.2293631796875,STAND2SIT
-1.04089453125,-9.0949609375,2.5304609375,-0.222661609375,0.16575040624999998,-0.12695422265625,STAND2SIT
-1.1659257812500001,-8.991660156250001,2.71771875,-0.073967984375,0.14396725000000002,-0.043069781249999994,STAND2SIT
-1.372765625,-8.5791484375,3.2810195312499997,0.1146451875,0.05571365625,0.056903,STAND2SIT
-1.56676171875,-7.850664062500001,4.02267578125,0.280170375,-0.007496921874999999,0.12532725,STAND2SIT
-1.71141796875,-6.93928515625,4.729085937500001,0.4026038046875,-0.0526555625,0.15419844140625003,SIT
-1.7720898437500001,-6.044078125,5.44009375,0.46086814062500003,-0.070633515625,0.17546112500000002,SIT
-1.803046875,-5.16664453125,6.15448828125,0.4683327265625,-0.0926414609375,0.17700634375,SIT
-1.8101015625,-4.298140625,6.871625,0.468066421875,-0.09872181249999999,0.16710846093749998,SIT
-1.8000078125,-3.43267578125,7.573125,0.465654515625,-0.1143564375,0.15870594140625,SIT
-1.78622265625,-2.57609375,8.2706484375,0.45983715625,-0.114049109375,0.150039203125,SIT
-1.777953125,-1.7278203125,8.986871093749999,0.46217335156249995,-0.1067879140625,0.14396190234375,SIT
-1.78593359375,-1.0370585937499999,9.49194921875,0.439546171875,-0.10406457031250001,0.14890954687500002,SIT
-1.74120703125,-0.49616796875,9.71384765625,0.337811796875,-0.0791620703125,0.1211968671875,SIT
-1.6645820312500001,-0.27307812500000006,9.7166015625,0.21211257812499998,-0.04629534375,0.07470759375,SIT2SLEEP
-1.6885039062500002,-0.26105859375,9.6736796875,0.08377159375000001,-0.023956941406249998,0.04713630078125,SIT2SLEEP
-1.75808203125,-0.27119140625000004,9.65864453125,0.015807218750000004,0.0124955078125,0.0196301640625,SIT2SLEEP
-2.0819960937500004,-0.27029687500000005,9.52808984375,-0.002646816406249997,0.05562976171875,0.02466228515625,SIT2SLEEP
-2.5070703125000002,-0.23907812500000003,9.33559765625,-0.037004921875,0.12772842187500003,0.08900284375,SIT2SLEEP
-2.94682421875,-0.06630078125000004,9.092246093750001,-0.050044429687499996,0.1913010546875,0.15217772265625,SIT2SLEEP
-3.264015625,0.25476953124999996,8.961082031250001,-0.044099960937499995,0.1837426953125,0.233080171875,SIT2SLEEP
-3.53585546875,0.6144726562499999,8.756015625,-0.05989795703125,0.19491705078125,0.33702431640625,SIT2SLEEP
-3.499078125,0.9015312499999999,8.7112421875,-0.095625171875,0.1554128125,0.45798765625000004,SIT2SLEEP
-3.62317578125,1.10342578125,8.64380859375,-0.16330832421875,0.12854706249999998,0.56149841015625,SIT2SLEEP
-3.80458984375,1.28662109375,8.577000000000002,-0.20280746093750002,0.1847522734375,0.6115411093750001,SIT2SLEEP
-3.96945703125,1.47226171875,8.50222265625,-0.211794203125,0.19592394531250001,0.6066070117187501,SLEEP
-4.07853515625,1.66034765625,8.430832031249999,-0.214327703125,0.18212392187499998,0.606884375,SLEEP
-4.04388671875,1.83590625,8.4467734375,-0.21340070312499998,0.16922155859375002,0.59663215625,SLEEP
-3.8495703125,2.01698828125,8.522499999999999,-0.1826692734375,0.0954256640625,0.5314217734375,SLEEP
-3.5712578125,2.07798046875,8.70119140625,-0.15618142578125,0.028807585937500005,0.46165576953125,SLEEP
-3.4413164062500003,1.9872421875,8.743484375000001,-0.16109574999999998,0.011978859375000003,0.38822578125,SLEEP2SIT
-3.19888671875,1.894703125,8.883542968750001,-0.148019265625,0.005811378906250001,0.2852674453125,SLEEP2SIT
-3.4161679687500004,2.02098828125,8.81121875,-0.06758589843749999,0.013916000000000001,0.168471921875,SLEEP2SIT
-3.639890625,2.3305,8.52406640625,0.059012589843750005,0.1022723671875,0.03485875781250001,SLEEP2SIT
-3.85226953125,2.5450390625,8.33342578125,0.195882296875,0.033898640625,-0.110167546875,SLEEP2SIT
-3.90194140625,2.534625,8.32515234375,0.19588708593749998,-0.04078580859375,-0.216440296875,SLEEP2SIT
-4.038019531250001,2.35386328125,8.30246875,0.158575390625,-0.0779321171875,-0.282228046875,SLEEP2SIT
-4.13701953125,1.988921875,8.1903046875,0.10289478125000001,-0.08265856249999999,-0.34261546875,SLEEP2SIT
-4.3880234375,1.5348203125,8.02175,0.094551125,-0.0179298125,-0.434886,SLEEP2SIT
-4.508199218750001,1.1790859374999998,7.94236328125,0.1579248125,0.0112104140625,-0.5711560546875,SLEEP2SIT
-4.51495703125,0.97260546875,7.9816015625,0.2436517890625,-0.01621653125,-0.6245991875,SIT
-4.58145703125,0.75141015625,7.984031249999999,0.278995953125,-0.04929785546875,-0.60531875390625,SIT
-4.5698125,0.34816796875,8.0778046875,0.249461578125,-0.040607953125,-0.580389203125,SIT
-4.44905078125,-0.10470312500000001,8.327230468749999,0.19216565234375,-0.08510546875000001,-0.5672548046875,SIT
-4.244039062500001,-0.5364375,8.59415234375,0.1014645546875,-0.0825515390625,-0.49855615625000005,SIT
-4.160375,-0.74291015625,8.63091015625,0.09346321484374999,-0.04925621484375,-0.39435642578125,SIT
-3.9725195312499997,-0.78148046875,8.702308593749999,0.1260980625,0.004466250000000002,-0.307587984375,SIT2STAND
-3.8569921875,-0.56061328125,8.81415625,0.1876176171875,-0.0021525273437499985,-0.24995296093750002,SIT2STAND
-3.7203164062500003,-0.47021875,9.06514453125,0.22014586718749998,-0.028625359374999996,-0.1712765625,SIT2STAND
-3.45889453125,-0.8989648437500001,8.93396875,0.011324531250000002,-0.06937430078125,-0.04584369921875,SIT2STAND
-3.195671875,-1.55694140625,8.375578125,-0.23818870312499998,-0.08692564062500001,-0.0221481875,SIT2STAND
-2.9661015625,-2.4444414062499997,7.60421875,-0.430015609375,-0.040799289062499994,-0.0616254375,STAND
-2.7543320312499997,-3.36412890625,6.8907734375,-0.5041999609375001,-0.0056190078124999975,-0.10762678125,STAND
-2.52816796875,-4.27249609375,6.192046875,-0.5102107734375,0.02553439453125,-0.12363153515624999,STAND
-2.3433515625,-5.173859375000001,5.506488281249999,-0.504135890625,0.033477734375,-0.125938765625,STAND
-2.14353515625,-6.07333203125,4.8236875,-0.49841685546875003,0.05125595703125001,-0.1261945,STAND
-1.954453125,-6.9792578125,4.13628515625,-0.4947045390625,0.059356882812500004,-0.1296433984375,STAND
-1.789890625,-7.91362109375,3.44027734375,-0.49912284765625,0.065679609375,-0.13154166796875,STAND
-1.50854296875,-8.76248046875,2.6704257812499996,-0.5153007968750001,0.066372359375,-0.120237015625,STAND2SLEEP
-1.4653242187500002,-8.915714843750001,2.19446875,-0.40707726171874997,0.032816828125,-0.10402363671875,STAND2SLEEP
-1.69208984375,-8.84646875,2.32440625,-0.16405894531249998,0.064520921875,-0.006059898437499998,STAND2SLEEP
-2.1232734375,-8.3959765625,3.0311171875,0.08209042968750002,0.03410541796875,0.124567578125,STAND2SLEEP
-2.468671875,-7.53392578125,3.67010546875,0.27310268750000005,-0.028067593749999998,0.26329509375,STAND2SLEEP
-2.8664921875,-6.620054687500001,4.2735351562499995,0.34158165234375,-0.065458078125,0.37023912109375,STAND2SLEEP
-3.2376328125,-5.6902968750000005,4.88003515625,0.3374086640625,-0.081018265625,0.43080503125,STAND2SLEEP
-3.64031640625,-4.642875,5.4574296874999995,0.31954675,-0.08590367578125,0.48789215625,STAND2SLEEP
-3.901421875,-3.4639765625000005,6.07863671875,0.3342295,-0.104968453125,0.5672042187499999,STAND2SLEEP
-4.081593750000001,-2.2167304687500002,6.638890625,0.33066385546875005,-0.11149678515625,0.6570384921875,STAND2SLEEP
-4.1165234375,-1.0917734375,7.3793359375,0.314139875,-0.14377793749999998,0.74086296875,STAND2SLEEP
-4.158210937500001,-0.04711328125000004,8.067671875,0.27292552734375003,-0.14526558984375001,0.7996266679687499,SLEEP
-4.15944140625,0.80354296875,8.483578125000001,0.20671179687500002,-0.114761875,0.796388796875,SLEEP
-3.8916171875,1.5031015625,8.614437500000001,0.09860752734375,-0.080127296875,0.71396305859375,SLEEP
-3.681359375,1.84536328125,8.652121093749999,-0.0029580468749999945,-0.05001253125,0.5931906171875,SLEEP
-3.41748046875,2.03070703125,8.75783984375,-0.08130841015625,-0.02415417578125,0.48756787109375,SLEEP
-3.160984375,2.2023046875,8.84333203125,-0.0954894375,-0.02667909375,0.4196625,SLEEP
-2.8775273437499997,2.2890625,8.964375,-0.08650705078125,-0.03001571484375,0.35471408593750003,SLEEP
-2.71787890625,2.19927734375,9.023515625,-0.0963540625,-0.0331321796875,0.27396055468749997,SLEEP
-2.53153515625,2.0705703125,9.1592890625,-0.098791546875,-0.0219330234375,0.18453313671875002,SLEEP2STAND
-2.44573828125,2.1134921875,9.175203125,-0.079020203125,-0.0461600625,0.08403206249999999,SLEEP2STAND
-2.488328125,2.2991953125,9.1062421875,0.025508062500000005,-0.022119406249999998,0.012642929687500002,SLEEP2STAND
-2.37062890625,2.60169140625,8.9551640625,0.1113888515625,-0.051201953125,-0.085697125,SLEEP2STAND
-2.2704140625,2.80702734375,8.910421875,0.16765528125,-0.11972524609374999,-0.17634658203125,SLEEP2STAND
-2.15765234375,2.76383984375,8.963140625000001,0.12697853125,-0.154517546875,-0.232662984375,SLEEP2STAND
-2.22230859375,2.4605234375,9.016800781250002,0.0264124375,-0.1504190546875,-0.27162466406249997,SLEEP2STAND
-2.2927890625,1.99603515625,8.9828046875,-0.0419353828125,-0.1138742421875,-0.3297272578125,SLEEP2STAND
-2.39021484375,1.305328125,8.903144531250001,-0.082230828125,-0.06398018359374999,-0.42340767578125,SLEEP2STAND
-2.323390625,0.40774999999999995,8.49676953125,-0.16956290624999998,-0.0266211875,-0.53033103125,SLEEP2STAND
-2.2523203124999998,-0.5581640625000001,7.844296875,-0.28517012109375,0.002223566406250002,-0.59925098828125,SLEEP2STAND
-2.3264921875,-1.7162187500000001,7.11458984375,-0.3749828125,0.076501875,-0.6297686953125,STAND
-2.24801953125,-3.0342343750000005,6.4434296875,-0.44615907031249996,0.13697094140625002,-0.6418861367187499,STAND
-2.2477265625,-4.41908203125,5.88380078125,-0.516479421875,0.137627296875,-0.6139316250000001,STAND
-2.2636484375,-5.75916796875,5.253707031249999,-0.5804498789062501,0.20400571874999998,-0.523568625,STAND
-2.27772265625,-6.906187500000001,4.50623046875,-0.555702828125,0.25836496875000003,-0.4531755625,STAND
-2.1772031249999997,-7.7406640625000005,3.7587265625,-0.4589743125,0.2699013359375,-0.41243534765625,STAND
-2.06288671875,-8.40662109375,3.09305078125,-0.374295125,0.23326803125,-0.36348103125000003,STAND
-1.881140625,-8.857140625000001,2.44455078125,-0.32264230859375,0.19425037109375,-0.267709078125,STAND
-1.8498671875000001,-9.044671875,2.06512890625,-0.2513641640625,0.15089221875,-0.148652546875,STAND2SIT
-1.89273828125,-9.14551171875,1.9970937500000001,-0.14316471484375,0.12225268359375001,-0.06492683203125,STAND2SIT
-1.90469140625,-8.962855468750002,2.2606757812500002,0.004505468750000005,0.07174443750000001,-0.020214171875,STAND2SIT
-1.949765625,-8.61470703125,2.84387109375,0.13363837890625002,-0.0138783671875,0.02633187890625,STAND2SIT
-2.05152734375,-7.9677265625,3.6232460937499997,0.283977109375,-0.0613716640625,0.0742987421875,STAND2SIT
-2.11284765625,-7.180101562500001,4.377152343750001,0.3991039140625,-0.06997063671875,0.0924182734375,SIT
-2.120828125,-6.3759179687500005,5.12615625,0.44331879296875,-0.0894321875,0.10710080859375001,SIT
-2.14412890625,-5.591035156249999,5.859875,0.44999083203124995,-0.1046930078125,0.1209463828125,SIT
-2.16068359375,-4.8089453125,6.5831484375,0.44844423046875,-0.10011529687500001,0.11266025390625001,SIT
-2.1664999999999996,-4.0253203125,7.2963320312499995,0.442498546875,-0.10022668750000001,0.1199153828125,SIT
-2.17785546875,-3.2410507812500002,8.0236015625,0.43960023828125,-0.102466296875,0.12085879296875,SIT
-2.1931953125,-2.48559765625,8.76312109375,0.44938345703125004,-0.09958392578125,0.11895228515625,SIT
-2.2354921875000002,-1.868359375,9.30066015625,0.42003312109375,-0.0968739609375,0.11769973046875001,SIT
-2.20759375,-1.3286640625,9.5366484375,0.33088508203125,-0.06279112109375,0.10216702734375001,SIT
-2.145671875,-1.11413671875,9.5387890625,0.20646526953125,-0.03365765625,0.05466640234375,SIT2SLEEP
-2.1186796875000002,-1.08562890625,9.49280859375,0.0802592578125,-0.02394181640625,0.03457223046875,SIT2SLEEP
-2.2400468750000004,-1.07432421875,9.45878515625,0.024320500000000005,0.007369750000000001,0.013821734375000002,SIT2SLEEP
-2.51372265625,-1.1383984375,9.32882421875,-0.009151644531249996,0.052441207031250006,0.023617171875000002,SIT2SLEEP
-2.9476953125,-1.1632109375,9.108175781249999,-0.0788836796875,0.1152384140625,0.1144891015625,SIT2SLEEP
-3.2909453125,-1.0278046875,8.94205859375,-0.09004551562499999,0.14911835546875002,0.17685773828124998,SIT2SLEEP
-3.4012578125,-0.6806953125,8.8767890625,-0.069302234375,0.106390625,0.263363453125,SIT2SLEEP
-3.58481640625,-0.2348984375,8.762464843750001,-0.06323802734375,0.06884954296875,0.38983070703125,SIT2SLEEP
-3.7536718749999998,0.20170703124999997,8.612285156250001,-0.0707325078125,0.1183641796875,0.4875650703125,SIT2SLEEP
-3.7079921875000004,0.5286171875,8.594191406250001,-0.09204683984375,0.0870028828125,0.5483991484375,SIT2SLEEP
-3.7361875,0.87298828125,8.55005859375,-0.14718121874999998,0.061896015625,0.620435671875,SLEEP
-3.79349609375,1.19161328125,8.52891015625,-0.1632076875,0.1044475390625,0.66382056640625,SLEEP
-3.7315859375,1.4802031249999998,8.509917968749999,-0.1687666640625,0.08471234375,0.655767890625,SLEEP
-3.5863359375,1.84050390625,8.57363671875,-0.1657860234375,0.05250212890625,0.64177226171875,SLEEP
-3.2210507812499998,2.20878515625,8.740019531249999,-0.1019594375,-0.0034277343749999985,0.563458453125,SLEEP
-2.8885312499999998,2.41985546875,8.902734375000001,-0.0748047578125,-0.0522186875,0.49252154296875,SLEEP
-2.7503437500000003,2.43149609375,8.95756640625,-0.0940292265625,-0.026743585937499998,0.4110878828125,SLEEP2SIT
-2.64921875,2.31565234375,9.005351562500001,-0.1066065078125,0.0245589296875,0.28639230859375,SLEEP2SIT
-2.4129375,2.25435546875,9.14601953125,-0.10018239062499999,-0.02401946875,0.171557296875,SLEEP2SIT
-2.4294960937499996,2.40484765625,9.028953125,-0.037845355468749994,-0.0372868046875,0.10064381640625,SLEEP2SIT
-2.6581367187500002,2.71191015625,8.7951328125,0.0833737265625,0.057481359375000006,0.020274742187500003,SLEEP2SIT
-2.782890625,2.9684257812499997,8.5882734375,0.19155701562500002,-0.008123246093749996,-0.1050532890625,SLEEP2SIT
-2.85398828125,2.9865117187499997,8.602374999999999,0.15946490624999998,-0.04350949999999999,-0.192955546875,SLEEP2SIT
-3.058390625,2.95037890625,8.52272265625,0.139348578125,-0.07355661328124999,-0.2430636953125,SLEEP2SIT
-3.3519648437500003,2.73775,8.43755078125,0.0899687265625,-0.043659734374999995,-0.2806744296875,SLEEP2SIT
-3.63237890625,2.4565390625,8.305476562499999,0.0909238125,-0.020938808593749993,-0.37116776953125,SLEEP2SIT
-3.91983984375,2.1520312500000003,8.1645078125,0.132706203125,-0.0034507187499999955,-0.488837453125,SLEEP2SIT
-4.114734375,1.9008085937499999,8.10415625,0.19488182812500002,-0.0049220781249999955,-0.5851561093750001,SLEEP2SIT
-4.26919921875,1.5852382812499999,8.10016015625,0.2250239375,-0.031130343749999994,-0.6264959609374999,SIT
-4.3926953125,1.1157929687500001,8.17400390625,0.19444554687499999,-0.057564328124999994,-0.6255249609375,SIT
-4.2511054687500005,0.5516640625,8.41487109375,0.13206289062499998,-0.11375612499999999,-0.6213971093749999,SIT
-4.1646640625,-0.031769531250000024,8.70444921875,0.0467365078125,-0.1098407734375,-0.562335953125,SIT
-4.06534765625,-0.33693750000000006,8.72558203125,0.053097921875,-0.09348949999999999,-0.469881015625,SIT2STAND
-3.8928007812499996,-0.541328125,8.81965625,0.0981963828125,-0.036685632812499994,-0.39929671875,SIT2STAND
-3.71995703125,-0.6023046875000001,9.002925781250001,0.16487801562499999,-0.061886984374999995,-0.366741765625,SIT2STAND
-3.52441796875,-1.07426171875,8.982089843750002,0.07292990625,-0.07292640234374999,-0.26547048828124997,SIT2STAND
-3.1977109375,-1.6547304687500002,8.668890625,-0.1330513828125,-0.095213828125,-0.1577551015625,SIT2STAND
-2.8771640625,-2.44908984375,8.015500000000001,-0.324869953125,-0.08461560546875,-0.1016313828125,STAND
-2.6016445312500003,-3.2817734375,7.333015625000001,-0.45686796874999996,-0.019005812499999997,-0.09012031250000001,STAND
-2.45852734375,-4.1291484375000005,6.62753125,-0.47058189453125,0.054954953125000004,-0.09470246875,STAND
-2.3436250000000003,-4.9673007812500005,5.938589843750001,-0.47473309375,0.0938270234375,-0.0906955859375,STAND
-2.2296210937499996,-5.805789062500001,5.24628125,-0.473190578125,0.10153369140625,-0.08669606640625001,STAND
-2.11930078125,-6.64580078125,4.54691796875,-0.47479496875,0.1097544375,-0.08313778124999999,STAND
-2.0068515625,-7.5366640625,3.859515625,-0.47994647265624996,0.1147199296875,-0.08644502734375,STAND
-1.8627851562500002,-8.46334765625,3.0816875,-0.5034382890625,0.11645975,-0.08353046875,STAND
-1.69971875,-8.908046875,2.45126953125,-0.44454378906249997,0.10072579687500001,-0.0949419296875,STAND2SLEEP
-1.70862890625,-8.954015625,2.208859375,-0.263833359375,0.11305107812500001,-0.0907950625,STAND2SLEEP
-1.98415625,-8.806890625,2.502453125,-0.05779967578124999,0.09409506640625001,-0.010213546874999998,STAND2SLEEP
-2.40155078125,-8.37169921875,3.05623046875,0.12184783593750001,0.0250871953125,0.134104453125,STAND2SLEEP
-2.7506171875,-7.6539375,3.70780078125,0.20839230859375,-0.06534732421875,0.268919046875,STAND2SLEEP
-3.05553125,-6.748984375000001,4.3017578125,0.27654509375,-0.117794953125,0.365831921875,STAND2SLEEP
-3.40244140625,-5.9031171874999995,4.89419140625,0.295698484375,-0.1310556640625,0.41204634375,STAND2SLEEP
-3.6841015625,-4.89523828125,5.517265625,0.285644640625,-0.1344597578125,0.452074421875,STAND2SLEEP
-3.77910546875,-3.7175703125,6.204375000000001,0.3333243984375,-0.18256878906250001,0.5190389062499999,STAND2SLEEP
-3.89739453125,-2.47646875,6.76889453125,0.336736625,-0.186189734375,0.617284984375,STAND2SLEEP
-3.87444140625,-1.2957343749999999,7.45694140625,0.3485217734375,-0.18872768359375,0.6938866015625,STAND2SLEEP
-3.8873125,-0.22657421875,8.105421875,0.30758246875,-0.1804595,0.756901890625,SLEEP
-3.844390625,0.6712734374999999,8.5378671875,0.2381633828125,-0.1556511484375,0.76699032421875,SLEEP
-3.6264921875,1.41927734375,8.75177734375,0.149919390625,-0.1259203125,0.6879263124999999,SLEEP
-3.3494414062500004,1.91533984375,8.7585,0.079694234375,-0.07205339843750001,0.577240828125,SLEEP
-3.1110351562500003,2.1411171875,8.84642578125,0.011138585937500002,-0.028355953125,0.46613278124999996,SLEEP
-2.8943632812500004,2.39908203125,8.9150625,-0.03087187109375,-0.0209719765625,0.39834445703125,SLEEP2STAND
-2.6418359375,2.54337890625,8.97725390625,-0.014205859374999996,-0.019712343749999996,0.353172,SLEEP2STAND
-2.4821484375000002,2.54367578125,9.01248828125,-0.0520681875,-0.011767046875,0.28151780078125,SLEEP2STAND
-2.29276171875,2.6579609375,9.0630390625,-0.023359687499999997,-0.0237796875,0.180687796875,SLEEP2STAND
-2.27621484375,2.8289765625,8.95545703125,0.010483632812500003,-0.040276246093749996,0.06809162890624999,SLEEP2STAND
-2.0987695312500003,3.02296875,8.88925390625,0.10400826562500001,-0.0853083125,-0.077436375,SLEEP2STAND
-2.0098828125000003,2.9580234374999996,8.9361484375,0.0904843828125,-0.15004942968749999,-0.195464265625,SLEEP2STAND
-1.9302265625,2.58453515625,9.007249999999999,-0.011480390625000001,-0.16750983593750002,-0.27190078125,SLEEP2STAND
-1.94525390625,2.13258984375,9.023503906250001,-0.0767829921875,-0.13886369531249998,-0.33522476562500003,SLEEP2STAND
-1.99305859375,1.3962460937499999,8.961910156250001,-0.125545203125,-0.09330553125,-0.396523984375,SLEEP2STAND
-1.82419921875,0.44538671874999997,8.57821875,-0.2405533828125,-0.06308819921874999,-0.49540201171875003,SLEEP2STAND
-1.64950390625,-0.564015625,7.94353515625,-0.3474574375,-0.026705132812499997,-0.5827376640624999,SLEEP2STAND
-1.54837890625,-1.72147265625,7.23037890625,-0.43757712109374997,0.06762785156250001,-0.6325208398437501,STAND
-1.50917578125,-3.04561328125,6.5916992187500005,-0.49495478125,0.17105703125,-0.6482821562500001,STAND
-1.4438984375000001,-4.43105859375,6.03333984375,-0.54742880078125,0.19999412890625,-0.63714344921875,STAND
-1.4383750000000002,-5.8447070312500005,5.45748046875,-0.6134509296874999,0.24693062500000001,-0.5686008515625,STAND
-1.34523046875,-7.028828125,4.7387890624999995,-0.606669421875,0.29234184765625,-0.50087385546875,STAND
-1.2759453125,-7.8415703125,3.9821093750000003,-0.50099759375,0.3027701875,-0.43175740625,STAND
-1.120859375,-8.544617187500002,3.27475,-0.413684765625,0.28848086328125,-0.35836433203125,STAND
-0.91459375,-9.00922265625,2.608203125,-0.3675307578125,0.249267875,-0.2892973671875,STAND2SIT
-0.9001601562499999,-9.01750390625,2.42953515625,-0.23885037499999998,0.21909736328124998,-0.18750631640625,STAND2SIT
-1.02059375,-8.847406249999999,2.83958984375,-0.023141015625,0.156661921875,-0.06293425,STAND2SIT
-1.225921875,-8.20746875,3.592890625,0.21649114453124998,0.0654830546875,0.040056984375,STAND2SIT
-1.40426953125,-7.31876171875,4.3042265625,0.3876014609375,0.005723406250000002,0.089539984375,SIT
-1.54769921875,-6.415,5.02565234375,0.46680433203125,-0.025043683593749998,0.12079257421875,SIT
-1.665671875,-5.50844140625,5.75198828125,0.48857775,-0.044845593749999996,0.14204709375000002,SIT
-1.7940859375,-4.6153828125,6.48629296875,0.4942910078125,-0.046172296875,0.15270130078125,SIT
-1.91237890625,-3.72017578125,7.20897265625,0.4918799609375,-0.04844259375,0.155477640625,SIT
-2.01533984375,-2.83692578125,7.92949609375,0.49072861328125,-0.048881035156249995,0.150622640625,SIT
-2.1140234375,-1.953671875,8.672374999999999,0.491347859375,-0.050790828125,0.14275528125,SIT
-2.21117578125,-1.2153671875,9.27519140625,0.48357498046875,-0.051086296875,0.13504339062499998,SIT
-2.24396484375,-0.569921875,9.55959375,0.3938479296875,-0.028708531249999995,0.1205285546875,SIT
-2.2359804687500002,-0.23526953125000002,9.593625000000001,0.26103017578125004,-0.003762199218749998,0.075458859375,SIT2SLEEP
-2.2188125,-0.16814453125000003,9.552539062500001,0.12294403125,-0.010759078124999998,0.05830025,SIT2SLEEP
-2.2491640625,-0.16049218750000002,9.53259375,0.0364787890625,0.0005292343750000019,0.0296717734375,SIT2SLEEP
-2.58384765625,-0.21262890625000005,9.3732421875,0.005889281250000001,0.041353546875,0.011602796875000002,SIT2SLEEP
-3.01564453125,-0.40753515625000003,9.11794921875,-0.0560801484375,0.14917230859375,0.03004525,SIT2SLEEP
-3.29178515625,-0.35762890625,8.9717578125,-0.119096078125,0.16185221875,0.07104329687500001,SIT2SLEEP
-3.404265625,-0.06689843750000003,8.913519531250001,-0.07491741015624999,0.09659641796875,0.20013842578125,SIT2SLEEP
-3.57344140625,0.30964062499999995,8.764265625,-0.08204932031250001,0.09237346093750001,0.3438707734375,SIT2SLEEP
-3.7110546875,0.6849687499999999,8.608890625,-0.0756146171875,0.13075090625,0.44240714453124996,SIT2SLEEP
-3.7509140625,0.96129296875,8.55221875,-0.126187515625,0.12989381249999998,0.5224192343749999,SLEEP
-3.9201015625,1.2247421875,8.46518359375,-0.1706527578125,0.1492754765625,0.5839307578125,SLEEP
-4.03716796875,1.45971484375,8.382125,-0.193217640625,0.17559540625,0.6016914921875001,SLEEP
-4.1058046875,1.67787890625,8.3251328125,-0.20226296484375,0.1590557734375,0.60290730078125,SLEEP
-4.0392890625,1.935875,8.356109374999999,-0.206570671875,0.14024460937500002,0.60164821875,SLEEP
-3.727265625,2.32559375,8.5271171875,-0.16265737109375,0.03884157421875,0.5730496328125,SLEEP
-3.53141796875,2.63533984375,8.64695703125,-0.0828418515625,-0.0012035937499999979,0.5315355937499999,SLEEP
-3.53450390625,2.58568359375,8.63686328125,-0.11767271484375,0.054811445312500005,0.42248962109375005,SLEEP
-3.5001953125000003,2.46033984375,8.681644531249999,-0.12082062890625,0.07635263671874999,0.27376944921875,SLEEP
-3.47417578125,2.273078125,8.78860546875,-0.13006613671875,0.04183760937500001,0.17040399609375,SLEEP
-3.55358203125,2.21205078125,8.76376953125,-0.09451283203125,0.028353972656250004,0.08259220703125,SLEEP
-3.5195820312499997,2.15901171875,8.79994140625,-0.044859453125,0.023672371093750002,0.01782983984375,SLEEP
-3.4956953124999997,2.1301992187499996,8.819546874999999,-0.01926580078125,-0.013628144531249997,-0.008233253906249998,SLEEP2SIT
-3.472734375,2.0992265625,8.846832031249999,-0.012938410156249998,-0.010987656249999998,-0.006087714843749998,SLEEP2SIT
-3.3792578125,2.11209765625,8.87653515625,-0.009191769531249998,-0.01820376171875,-0.01115908984375,SLEEP2SIT
-3.310328125,2.34654296875,8.826859375,0.0343669140625,-0.038131015624999993,-0.007468359374999998,SLEEP2SIT
-3.2934726562499996,2.67538671875,8.606800781250001,0.11199832421875,-0.021159738281249996,-0.013983722656249998,SLEEP2SIT
-3.25484375,2.9941328125,8.435468749999998,0.19151631249999998,-0.05316523046875,-0.05871725,SLEEP2SIT
-3.363328125,2.922140625,8.482949218749999,0.1608069453125,-0.073146671875,-0.1350311484375,SLEEP2SIT
-3.4399140625,2.56644140625,8.443093750000001,0.06446321875,-0.08773592578125,-0.26416437109375,SLEEP2SIT
-3.517734375,2.12645703125,8.349640625,0.024023265625,-0.07083053125,-0.381566171875,SLEEP2SIT
-3.6093359375,1.7676953125,8.310703125,0.06107665625,-0.03990457421875,-0.50583512890625,SLEEP2SIT
-3.6316953125,1.40769921875,8.32450390625,0.13382475000000002,-0.036262687499999995,-0.6091472265625001,SIT
-3.62155859375,1.15591796875,8.35910546875,0.15223512890625,-0.05424558984375,-0.632579640625,SIT
-3.6629375000000004,0.91606640625,8.3771875,0.179045203125,-0.0666496875,-0.603519359375,SIT
-3.6788749999999997,0.5051953125,8.46301953125,0.1660217109375,-0.05344213671875,-0.5947523984374999,SIT
-3.6035000000000004,-0.011753906250000019,8.693171875,0.0971848828125,-0.0706844609375,-0.59586609375,SIT2STAND
-3.5992031250000003,-0.4981132812500001,9.024796875,0.026464722656250005,-0.062633515625,-0.55337934375,SIT2STAND
-3.62278125,-1.07755078125,9.0302890625,0.006770953125000006,-0.005272249999999998,-0.484383296875,SIT2STAND
-3.4064140625,-1.6120468749999999,8.700531250000001,-0.08560189453125,0.009434054687500002,-0.3513581640625,SIT2STAND
-3.19372265625,-2.1266054687500002,8.2199765625,-0.16763207812499997,0.0035904609375000023,-0.269150234375,SIT2STAND
-2.90658203125,-2.83822265625,7.614078125000001,-0.29388244140625,0.0077625585937500016,-0.1917629296875,STAND
-2.70067578125,-3.58599609375,7.0020625,-0.398762390625,0.025666437500000003,-0.106845609375,STAND
-2.54499609375,-4.3846484375,6.360359375000001,-0.42265053515624995,0.058569640625,-0.066528171875,STAND
-2.42210546875,-5.2375546875,5.7318046875,-0.44540503124999997,0.0897346015625,-0.08741425,STAND
-2.3448828125,-6.1060859375,5.08943359375,-0.45114329296875,0.11500196484375,-0.09768588671874999,STAND
-2.2642968750000003,-6.978253906250001,4.432390625,-0.45894832812499997,0.135610859375,-0.094926515625,STAND
-2.2336523437499998,-7.888046875000001,3.7462070312500004,-0.4706628125,0.14447694140625,-0.0940259453125,STAND
-2.0831914062499997,-8.619253906250002,2.99688671875,-0.4817233984375,0.1355816484375,-0.087013234375,STAND2SLEEP
-2.08627734375,-8.64621484375,2.6588515624999998,-0.32631122265625,0.13048846484374999,-0.08860903125,STAND2SLEEP
-2.348609375,-8.52761328125,2.8902382812500003,-0.087956453125,0.12082464062500001,-0.004563609374999999,STAND2SLEEP
-2.7243359375000002,-7.97230078125,3.5454765624999998,0.11395056640625001,0.043537160156250004,0.1389591328125,STAND2SLEEP
-3.02343359375,-7.09277734375,4.159328125,0.2387459609375,-0.0589988828125,0.2929805859375,STAND2SLEEP
-3.32437109375,-6.110660156250001,4.7014375,0.29834612109375,-0.0993996015625,0.40223444140625,STAND2SLEEP
-3.65871484375,-5.072453125,5.22181640625,0.302846390625,-0.09779446875,0.46141184375,STAND2SLEEP
-3.8367578124999997,-3.91963671875,5.80903515625,0.31704488671875003,-0.12626569921875,0.5138300625,STAND2SLEEP
-4.021546875,-2.6932539062500003,6.31775390625,0.310927,-0.13812603125,0.5956076484375,STAND2SLEEP
-3.97709375,-1.4705390625,6.902496093750001,0.31724034375,-0.13732326953125,0.68128344921875,STAND2SLEEP
-3.9688320312500003,-0.3673671875,7.5659921875,0.270236078125,-0.16762409374999998,0.75965653125,SLEEP
-4.005,0.6445078125,8.211089843749999,0.24776465625000002,-0.12893772265625,0.806218515625,SLEEP
-3.8667773437500004,1.4865976562499998,8.587746093749999,0.1827704140625,-0.1206828203125,0.7711701953125001,SLEEP
-3.5563203125,2.1432578125,8.694078125,0.09364941796875,-0.09004291406249999,0.67498617578125,SLEEP
-3.29334765625,2.4413710937500004,8.71337109375,0.014902703124999996,-0.039509109375,0.550615796875,SLEEP
-3.0469453124999997,2.5667304687500003,8.82001953125,-0.057331265625,-0.014742593749999998,0.43813662890625,SLEEP
-2.7110390625,2.67858984375,8.9214609375,-0.07998959375,-0.019218374999999996,0.37382252343750005,SLEEP
-2.4223710937500003,2.6641796875,8.984902343749999,-0.0931722578125,-0.02841305859375,0.32227230859375,SLEEP2STAND
-2.1582109375000003,2.79625,9.04496484375,-0.057301046875000004,-0.054151078124999995,0.234570921875,SLEEP2STAND
-1.9618203125,3.0083124999999997,8.92758984375,0.006214960937499997,-0.07527433593749999,0.1276015859375,SLEEP2STAND
-1.88825,3.35983203125,8.70968359375,0.1124037578125,-0.0999102734375,-0.0196450625,SLEEP2STAND
-1.72212109375,3.4024453125,8.780191406250001,0.1352710390625,-0.15534812890625,-0.1579199921875,SLEEP2STAND
-1.7276445312500002,3.14692578125,8.86998828125,0.031180421875,-0.19120543750000002,-0.24501640624999999,SLEEP2STAND
-1.9164140625,2.6385859375,8.8335390625,-0.050819269531249996,-0.12813808984375,-0.31280454296875,SLEEP2STAND
-1.9630078125,1.710703125,8.60888671875,-0.17320797656249998,-0.076741671875,-0.4054397578125,SLEEP2STAND
-1.9228750000000001,0.80028515625,8.10812109375,-0.28605574609375,-0.035030542968749995,-0.509799453125,SLEEP2STAND
-1.8564023437500001,-0.275953125,7.46821484375,-0.362616015625,0.026695109375000005,-0.572118125,SLEEP2STAND
-1.8521171875,-1.4199140625,6.801636718749999,-0.4135110859375,0.0874230546875,-0.62967134375,STAND
-1.9130976562500002,-2.73821875,6.192085937500001,-0.45741763281250003,0.1708766796875,-0.6388287734375,STAND
-2.0135664062500003,-4.155210937500001,5.70755859375,-0.518532296875,0.20447784765625002,-0.6369925976562499,STAND
-2.095390625,-5.6396171875,5.2956796875,-0.584615546875,0.2949373125,-0.575016,STAND
-2.15423828125,-6.9058515625000005,4.698664062500001,-0.5801860390625,0.33191365625,-0.5051746406250001,STAND2SIT
-2.1560742187499997,-7.8181640625,3.9367773437499998,-0.48117278125,0.35266861718750003,-0.426250375,STAND2SIT
-1.934203125,-8.363367187500002,3.454078125,-0.38684946875,0.31461995703125,-0.3457988046875,STAND2SIT
-1.90847265625,-8.353550781250002,3.3921796874999997,-0.187579,0.236269171875,-0.240607625,STAND2SIT
-2.03808203125,-7.962515625,3.846375,0.052540195312499996,0.1746077734375,-0.07713547265625,STAND2SIT
-2.08677734375,-7.247828125000001,4.520015625,0.2651823125,0.1079176015625,0.0222358671875,STAND2SIT
-2.16737890625,-6.35659375,5.2114140625,0.40800257421874997,0.016867082031250005,0.0949409375,SIT
-2.2292773437499998,-5.467546875,5.9221015625,0.45842190625,-0.037865828125,0.12537075,SIT
-2.27952734375,-4.58676171875,6.60061328125,0.46778079687499996,-0.07193882421874999,0.1391840234375,SIT
-2.31202734375,-3.72439453125,7.26472265625,0.45785180468750003,-0.09557853124999999,0.138738171875,SIT
-2.3497265625000003,-2.8617109375,7.90984765625,0.449948640625,-0.10803539453125,0.13330147656250002,SIT
-2.39569140625,-2.001140625,8.57366015625,0.449191296875,-0.100400953125,0.126365296875,SIT
-2.43891015625,-1.26256640625,9.18690625,0.45752613281250004,-0.09311561718749999,0.12330898046875,SIT
-2.4327890625,-0.59572265625,9.4942890625,0.383257953125,-0.076328484375,0.116377140625,SIT2SLEEP
-2.42021875,-0.16030078125000002,9.5362734375,0.28240748828124995,-0.03280764453124999,0.07251600390625,SIT2SLEEP
-2.50941015625,0.0069609374999999776,9.4623984375,0.165181671875,-0.0073111874999999965,0.03275175,SIT2SLEEP
-2.9118125,0.04519531249999997,9.205578125,0.065390953125,0.07250584375,0.03510948828125,SIT2SLEEP
-3.3740117187500003,-0.011792968750000021,8.96316015625,-0.022477828125,0.1894076328125,0.0626111484375,SIT2SLEEP
-3.735640625,0.24951171874999997,8.73578125,-0.05283472265625,0.19418766015625,0.1143103984375,SIT2SLEEP
-4.0782539062500005,0.61717578125,8.51205859375,-0.05272290625,0.20262909375,0.2369794375,SIT2SLEEP
-4.304125,0.9480624999999999,8.2751640625,-0.09889563671875,0.23926877734375,0.343710421875,SIT2SLEEP
-4.25294140625,1.1686171875,8.289878906250001,-0.1532910390625,0.16853585937499999,0.432384890625,SIT2SLEEP
-4.2887890625,1.326375,8.20775390625,-0.23899506640625,0.1396963515625,0.51952627734375,SIT2SLEEP
-4.34055078125,1.5107734375000001,8.1777265625,-0.26615434374999997,0.14811228125,0.545122359375,SLEEP
-4.369992187499999,1.68451953125,8.13940234375,-0.26269174609375,0.15242532812499998,0.5439864414062501,SLEEP
-4.350066406250001,1.8208710937500001,8.131453125,-0.2731555078125,0.14412724999999998,0.53831425,SLEEP
-4.151171875,1.96367578125,8.25220703125,-0.27539753515625,0.11151292578125,0.5190839023437499,SLEEP
-3.7650078125,2.20968359375,8.4511171875,-0.23594084375,0.0011393593750000004,0.488036328125,SLEEP
-3.487953125,2.2308359374999998,8.627953125,-0.1946246640625,-0.02028757421875,0.4421479296875,SLEEP2SIT
-3.1769062499999996,2.1373671874999998,8.78823828125,-0.2080178515625,-0.0344374609375,0.3201165078125,SLEEP2SIT
-3.07578515625,2.2440078125,8.87894140625,-0.11355762890625,-0.06262473828125,0.20401001953125,SLEEP2SIT
-3.2155546874999996,2.5517109375,8.5902421875,0.022716734375,0.00013375000000000257,0.09017521875,SLEEP2SIT
-3.41475,2.928078125,8.246703125,0.20899942187499998,0.020564824218750003,-0.05956660546875,SLEEP2SIT
-3.67158984375,2.9452265625,8.2191015625,0.2568600859375,-0.031446796874999995,-0.208076359375,SLEEP2SIT
-3.8153203125,2.47520703125,8.1660859375,0.15114553125,-0.09005521874999999,-0.34484545312500003,SLEEP2SIT
-3.7957109375,1.9751640625000002,8.02725,0.07301834374999999,-0.1020226875,-0.45580009374999997,SLEEP2SIT
-3.80369140625,1.59187109375,8.03151171875,0.08882828124999999,-0.11114555859375,-0.56171486328125,SLEEP2SIT
-3.8287968749999997,1.351078125,8.0621328125,0.1714059765625,-0.1045846015625,-0.63622159375,SLEEP2SIT
-3.8067265624999997,1.12590234375,8.09917578125,0.2061907578125,-0.10854508984375,-0.6132320078125,SIT
-3.77058203125,0.868875,8.15313671875,0.210520203125,-0.125696859375,-0.58437878125,SIT
-3.60140234375,0.41877734375,8.317109375000001,0.1778125625,-0.13596665234375,-0.59518458203125,SIT
-3.415359375,-0.1778203125,8.61560546875,0.094457796875,-0.1831634609375,-0.5816948671875,SIT2STAND
-3.1756953125,-0.6899335937500001,9.05753125,-0.003176906250000007,-0.1582643828125,-0.5291457695312499,SIT2STAND
-2.98262890625,-1.22435546875,9.2261015625,-0.04353268750000001,-0.1121264375,-0.420365875,SIT2STAND
-2.7555312499999998,-1.7428515625,8.946593750000002,-0.125847421875,-0.04067031640625,-0.26210661328125,SIT2STAND
-2.5967734375,-2.14892578125,8.502835937499999,-0.1779114921875,-0.023143054687499998,-0.1865617890625,SIT2STAND
-2.3574140625,-2.8093828125,7.82219921875,-0.304763890625,0.013555000000000003,-0.11076109375000001,SIT2STAND
-2.11898828125,-3.6537109375,7.138484375,-0.42384732812500003,0.027273078125000003,-0.052412562499999996,STAND
-1.9191796875,-4.52530078125,6.44033984375,-0.47893631640624995,0.04234258984375001,-0.057358683593749994,STAND
-1.79472265625,-5.39996875,5.70511328125,-0.48715804687500003,0.06850127343750001,-0.09259878125,STAND
-1.69756640625,-6.259625000000001,4.96589453125,-0.497291890625,0.09816072265625,-0.07619234375,STAND
-1.5973203125000002,-7.11621875,4.225460937499999,-0.498086703125,0.1033398125,-0.07354884375,STAND
-1.4873046875,-8.036796875,3.4972890624999997,-0.4984449765625,0.11105046484375,-0.07423762890624999,STAND
-1.29361328125,-8.847355468750001,2.706265625,-0.5107420078125,0.106575046875,-0.08823446875,STAND
-1.13330859375,-9.098054687500001,2.2477773437499997,-0.370925640625,0.0938594921875,-0.12587962890624999,STAND
-1.0900820312500001,-9.33956640625,2.09394140625,-0.208179734375,0.099645234375,-0.089402046875,STAND
-1.11705078125,-9.345078125,2.1365078124999997,-0.0767724921875,0.0718485234375,-0.04746891015625,STAND2SLEEP
-1.1829492187500001,-9.296941406250001,2.08012109375,-0.014911578125,0.047871828125,-0.005310398437499998,STAND2SLEEP
-1.2951171875,-9.095265625,2.22907421875,0.012388039062499998,0.03889153125000001,0.02555743359375,STAND2SLEEP
-1.57707421875,-8.815164062500001,2.6241015625,0.0931071875,0.007985656250000002,0.08634609374999999,STAND2SLEEP
-1.9794765625,-8.32908203125,3.2762734375,0.17893977734375002,-0.056464332031249995,0.18314325781250002,STAND2SLEEP
-2.32305078125,-7.5224375,3.88705078125,0.2506855,-0.0910604375,0.29361454687500005,STAND2SLEEP
-2.691421875,-6.668656250000001,4.51041015625,0.31813365625,-0.1126421640625,0.36254340625,STAND2SLEEP
-3.0006484374999998,-5.65617578125,5.1546328125,0.32224610937500003,-0.126776046875,0.41693545312499997,STAND2SLEEP
-3.19436328125,-4.4610546875,5.810480468750001,0.3716617578125,-0.15995867578125,0.48808361328125,STAND2SLEEP
-3.29154296875,-3.1736796875000004,6.39031640625,0.3927009765625,-0.1700262578125,0.5996456640625,STAND2SLEEP
-3.34916015625,-2.00154296875,7.1007148437500005,0.3848562734375,-0.16985914453125,0.72287566796875,SLEEP
-3.48369140625,-0.833390625,7.78505078125,0.337912296875,-0.12908478124999997,0.799492640625,SLEEP
-3.5443671875000002,0.14323046874999998,8.374390625,0.32393943750000004,-0.12940329296875,0.7965144375,SLEEP
-3.4257734375,1.0481484375,8.7320546875,0.242053171875,-0.116063171875,0.755270984375,SLEEP
-3.2002265625,1.7572070312499999,8.792398437500001,0.16207935937499998,-0.06852203515625,0.6502028398437499,SLEEP
-2.9547460937500003,2.1760625,8.87820703125,0.08763221875,-0.03101978125,0.52933790625,SLEEP
-2.74665625,2.45397265625,8.93859375,0.010663238281250001,-0.0024933945312499988,0.45065932421875,SLEEP2STAND
-2.44325,2.66785546875,8.99283984375,0.0006518593750000003,-0.0034427109374999985,0.3946509140625,SLEEP2STAND
-2.30872265625,2.7920039062499997,8.9821171875,-0.016155117187499998,-0.014667675781249999,0.3258434453125,SLEEP2STAND
-2.18643359375,2.8713671875,8.997125,-0.007204671874999999,0.0026655312500000025,0.202098234375,SLEEP2STAND
-2.29155859375,3.0681171875,8.9018203125,0.032594898437500006,-0.0420110703125,0.003076082031250003,SLEEP2STAND
-2.2753125,3.1416796875,8.86505078125,0.1256417890625,-0.08502668749999999,-0.19757592968749998,SLEEP2STAND
-2.26520703125,2.92167578125,8.92575390625,0.06593655078125,-0.15335885937500002,-0.30777467578125,SLEEP2STAND
-2.3847421874999997,2.6792812500000003,8.96159375,0.010547328124999998,-0.13937603125,-0.34721723437499996,SLEEP2STAND
-2.5226562500000003,2.15929296875,8.947828125000001,-0.029661328125000004,-0.118023765625,-0.38177171875,SLEEP2STAND
-2.507328125,1.2540898437499999,8.7296484375,-0.1390925078125,-0.08887542187499999,-0.4493999453125,SLEEP2STAND
-2.33173046875,0.31453906249999997,8.233464843750001,-0.25513623046875,-0.06731731249999999,-0.55557790625,SLEEP2STAND
-2.1984453125,-0.796921875,7.61715625,-0.347680453125,-0.021273093749999996,-0.6442595,SLEEP2STAND
-2.115390625,-2.0745039062500004,7.03547265625,-0.41222033984375,0.084117484375,-0.69392905859375,STAND
-2.03692578125,-3.385171875,6.482921875000001,-0.46317990625000005,0.12742708593750002,-0.7016603828125,STAND
-1.92412890625,-4.75527734375,5.98794140625,-0.51067953515625,0.19403850390625,-0.64138820703125,STAND
-1.7289062499999999,-6.061945312500001,5.50678125,-0.554122328125,0.21666649999999998,-0.5361026718749999,STAND
-1.6394101562499999,-7.0186875,4.8417265625,-0.5083627500000001,0.26239648046874997,-0.44331700390625,STAND
-1.391453125,-7.92115625,4.2294140625,-0.42300303125,0.2806069140625,-0.39916490624999995,STAND
-1.165234375,-8.604875,3.615859375,-0.38802290234375003,0.26185552734375,-0.36006467187499996,STAND
-0.9880859375,-8.88958984375,3.1843359374999998,-0.291641828125,0.23674746875,-0.295269578125,STAND
-0.99699609375,-9.05690234375,3.0402890625000003,-0.1684765859375,0.2166076953125,-0.18272668359375002,STAND
-1.06471875,-9.087843750000001,3.067234375,-0.07257915625000001,0.17368775,-0.084506375,STAND
-1.17105859375,-9.06883203125,3.0439531250000003,-0.00944954296875,0.1068122265625,-0.0162336328125,STAND2SIT
-1.245828125,-8.9008828125,3.14875,0.010401265625,0.056842265625,0.015585234375000001,STAND2SIT
-1.3386953125,-8.66980078125,3.521125,0.08515839453124999,0.010351066406250001,0.039633109374999996,STAND2SIT
-1.4668124999999999,-8.12705859375,4.1147578125,0.19319573437499998,-0.042305890625,0.0899195,STAND2SIT
-1.61176953125,-7.3060390625,4.786257812500001,0.3259743828125,-0.05502523828125,0.1306815,SIT
-1.681375,-6.4706328125,5.42616796875,0.407291515625,-0.07772421875,0.15516484375,SIT
-1.727359375,-5.660953125,6.070984375,0.41481292578125,-0.10969833593749999,0.16897254296875,SIT
-1.77,-4.8531171875,6.71183203125,0.4176493203125,-0.110308390625,0.1669128515625,SIT
-1.8080117187500002,-4.0502265625,7.3468476562500005,0.4180594765625,-0.11039297265624999,0.15855473828125,SIT
-1.8551875,-3.24548046875,7.97328515625,0.4179958125,-0.108701265625,0.151239609375,SIT
-1.90575,-2.4373398437500002,8.61075390625,0.41725343750000005,-0.10228502734375,0.15052444921875,SIT2SLEEP
-2.0620585937500002,-1.74993359375,9.182027343749999,0.42305178125000004,-0.08898446875,0.1398016328125,SIT2SLEEP
-2.27782421875,-1.1848203124999999,9.435484375,0.3481167421875,-0.051589742187499996,0.1510619765625,SIT2SLEEP
-2.6618203124999997,-0.9114531250000001,9.33498828125,0.1902724375,0.065572296875,0.177620359375,SIT2SLEEP
-2.91189453125,-0.7836992187499999,9.140972656250002,0.021930152343750006,0.11224076953125,0.20184230859375002,SIT2SLEEP
-3.0807421875000003,-0.404359375,9.02480859375,-0.047144234374999996,0.093559015625,0.295074875,SIT2SLEEP
-3.295265625,0.04820703124999999,8.83111328125,-0.0519013203125,0.10051631640625,0.4291816484375,SIT2SLEEP
-3.37923046875,0.45725781249999997,8.734886718750001,-0.070979125,0.13649031250000002,0.52933371875,SIT2SLEEP
-3.4928945312499997,0.75876953125,8.6668359375,-0.13525896484375,0.1274641640625,0.6014284609375,SLEEP
-3.65226171875,1.0228828125,8.602171875,-0.17024422656250002,0.14671928125,0.641110046875,SLEEP
-3.7806640625,1.2646328125,8.54515625,-0.18781015234374998,0.15138612109375,0.62715751953125,SLEEP
-3.84013671875,1.4720156249999998,8.5132890625,-0.1988789375,0.13732165625,0.6157253281249999,SLEEP
-3.81255078125,1.76093359375,8.527402343750001,-0.195550015625,0.11507287890625001,0.6021248828125,SLEEP
-3.57594921875,2.0856953125,8.641414062499999,-0.1385328984375,0.05230446875,0.52506865625,SLEEP
-3.41197265625,2.2971015625,8.7569609375,-0.09194352343750001,0.011306347656250002,0.451852375,SLEEP2SIT
-3.2532343750000003,2.21404296875,8.83694921875,-0.105205453125,0.027710734375,0.347948671875,SLEEP2SIT
-3.2471171875,2.2241445312500003,8.82928515625,-0.09898944140625,0.025913109375,0.19735985546874998,SLEEP2SIT
-3.45888671875,2.323125,8.63775390625,-0.022543929687500002,0.063506875,0.08013690625,SLEEP2SIT
-3.7288867187499997,2.57197265625,8.39901171875,0.14046573046875,0.07085846093749999,-0.06058323828125,SLEEP2SIT
-3.72030078125,2.5612265625,8.42630859375,0.15769303125,-0.026101093750000002,-0.174321984375,SLEEP2SIT
-3.872,2.50605859375,8.33865234375,0.1413173125,-0.049731882812499996,-0.20140349999999999,SLEEP2SIT
-4.0527890625000005,2.2119257812499997,8.30923046875,0.0851525234375,-0.03802835156249999,-0.22815365625,SLEEP2SIT
-4.12112890625,1.670171875,8.129921875,0.014939328124999995,-0.030843273437499995,-0.313801015625,SLEEP2SIT
-4.16312890625,1.12351171875,7.973898437500001,-0.006788484375000006,-0.010104921875,-0.415460015625,SLEEP2SIT
-4.19166015625,0.7190546875,7.9334453125,0.0652849609375,0.03139758203125,-0.53900559375,SLEEP2SIT
-4.2388671874999995,0.3719140625,7.9502890625000004,0.15255384375,0.0530703515625,-0.6179213515625,SLEEP2SIT
-4.26121484375,-0.054925781250000014,8.02228125,0.163942078125,0.057164734375,-0.598734875,SIT
-4.05311328125,-0.5770390625,8.27355859375,0.11973071875,-0.007254249999999999,-0.576412234375,SIT
-3.80732421875,-1.14271484375,8.639171875,0.023900894531249998,-0.03536680859375,-0.5270777695312501,SIT
-3.77269140625,-1.438671875,8.61953125,0.0136114140625,0.022189914062500003,-0.4539193359375,SIT
-3.5596875000000003,-1.6803984375,8.7804140625,0.06556547265625,0.0698612890625,-0.4096797578125,SIT
-3.34055078125,-1.65372265625,8.822394531250001,0.12456710937500001,0.049638609375000003,-0.381271671875,SIT2STAND
-3.1670859375,-1.29944921875,8.990359374999999,0.19737607421875,0.039714753906250004,-0.29588013671874996,SIT2STAND
-3.079125,-0.91788671875,9.25269140625,0.2483599609375,0.015828976562500003,-0.18997289062499997,SIT2STAND
-3.1244765625000004,-0.89215625,9.32258203125,0.1885260234375,-0.0038455390624999993,-0.06172692187499999,SIT2STAND
-3.0349921875000003,-1.39415234375,9.02286328125,-0.063922375,-0.017964843749999997,0.031942546875000005,SIT2STAND
-2.89890234375,-2.02944921875,8.419140624999999,-0.25455155468749996,-0.003723550781249998,-0.028320785156250004,STAND
-2.6935742187500002,-2.8835664062500004,7.67476953125,-0.39546011718749996,0.031064578125000006,-0.1044835390625,STAND
-2.5412734374999997,-3.72818359375,6.97050390625,-0.45786731640625,0.056479562500000004,-0.13643211718749998,STAND
-2.3810078125,-4.5789296875,6.2665546875,-0.465582484375,0.06978595312500001,-0.13797046875,STAND
-2.2044843750000003,-5.4342578125,5.558328125,-0.47103747265625,0.07578529296875,-0.14532589843750002,STAND
-2.0460625,-6.297890625000001,4.8629453125,-0.47027958593749997,0.08071990625000001,-0.1455918984375,STAND
-1.89958984375,-7.169179687500001,4.147625000000001,-0.4710197109375,0.09061404296875,-0.15113838671875002,STAND
-1.7809843749999998,-8.06101171875,3.4179023437500002,-0.47833704687499995,0.107122140625,-0.148854484375,STAND
-1.5269257812500001,-8.84615625,2.67562109375,-0.48241549218749996,0.09993235546875001,-0.14579646484375,STAND
-1.3794921875,-9.0986796875,2.1984531250000003,-0.36149561718749995,0.075139828125,-0.1387291171875,STAND2SLEEP
