,accelerometer_x,accelerometer_y,accelerometer_z,gyroscope_x,gyroscope_y,gyroscope_z,state
275,0.5723092081543234,0.032730338195238004,0.18142010927338637,0.5512939516245089,0.5531375483494907,0.499042149452795,8
300,0.5744284294918548,0.032154690330245136,0.17955017549739483,0.5425365671958864,0.55416953624087,0.4970207430037227,8
325,0.5790098007106272,0.03177581861135312,0.17658663424230353,0.5338742569158796,0.554466017724239,0.49537212785099655,8
350,0.5839341004731093,0.031109264119323573,0.17462179408014467,0.5326198743533544,0.554759002037934,0.49307670169551837,8
375,0.5902003902669944,0.030709218496618975,0.1718166948672323,0.5326474010636394,0.5539157745552514,0.4917616920356805,8
400,0.5964672305079801,0.030155309172873814,0.16872965618076846,0.5310630125864692,0.5544132984958346,0.4897881330222027,8
425,0.6008289733335902,0.02957966130788082,0.16489647063401833,0.530548038517085,0.5559810160887255,0.48921631815376543,8
450,0.606097852981084,0.02864829185883158,0.16034850895713765,0.5276973652979171,0.5572762730180092,0.49036316729779716,8
475,0.6083866120256178,0.027763504998170544,0.15673174173867704,0.5269526271452425,0.5551219894771657,0.4915376890745394,8
500,0.6108047261388063,0.027208184080837954,0.15395761615807035,0.5293725230788898,0.5583384412419026,0.49423171083275996,8
525,0.6141756641832329,0.027208748718272953,0.15236843056208008,0.5322019586483211,0.561647307030803,0.4934193121645199,8
550,0.6164660745690688,0.027385762554148645,0.15227590676301317,0.5359813102452441,0.5629331817606806,0.49293898954781784,8
575,0.6171601883629979,0.02751845235137612,0.15258762857532013,0.541955279203762,0.5642639892187734,0.4933326244989505,8
600,0.6159932405096039,0.02794221274635123,0.153523191110091,0.5428831134332215,0.562163437506907,0.49667768663345285,8
625,0.6128413804112391,0.028052034727460755,0.1545207009094732,0.5442961803006064,0.5643233145281603,0.5002194937845654,8
650,0.6085176184355744,0.02811894426350949,0.15651651470393774,0.5461968533889471,0.5661379843522577,0.5014474479102876,8
675,0.6037248755301494,0.028871605964378048,0.15863423753837452,0.5480185503301149,0.5646721383591027,0.5047495340805516,8
700,0.5994501033464432,0.02962567925883429,0.16097155548390144,0.5491600288368534,0.5635405998850302,0.5053190280328875,8
725,0.5947013962090708,0.030245368843758065,0.16318339050880543,0.5492965410104685,0.5645717657495403,0.505132166417889,8
750,0.5916354058584086,0.029868473355888724,0.16477337030049583,0.5482290578644655,0.5619793504205157,0.5043571543414893,8
775,0.5880041063353709,0.030333734602337067,0.16632919967708001,0.5461551817435705,0.5583298426701868,0.5045672853141737,8
800,0.5859294712129928,0.03028941056368885,0.16819953055092163,0.5468861799031404,0.5547429881580929,0.505657870636172,8
825,0.581867722057241,0.030911076379635048,0.16944522650659916,0.545574239509604,0.5536675764840145,0.5048326812900508,8
850,0.5806154549032452,0.030577940292979056,0.16929154963862109,0.5440403659878136,0.5521362086917329,0.5059369312564159,8
875,0.5804415136194374,0.030623958243932395,0.16969658944569507,0.5408535379656787,0.5506217991146579,0.5031966561596349,8
900,0.5786250381872676,0.03069086777998113,0.16919783454600398,0.5399624444341721,0.550108727773149,0.5029301231355238,8
925,0.5788853996658786,0.030426335141678737,0.16767019911677494,0.5387082300783183,0.5552956106539876,0.5015546737882747,8
950,0.5805273833671399,0.03018297640718943,0.16679777514016558,0.5374359241604711,0.557960870647796,0.4985196245105551,8
975,0.5822970707957539,0.030272189121920992,0.16767139041032517,0.53928152825355,0.5585727103664997,0.4959297050919372,8
1000,0.5820790937438935,0.030383422696617948,0.1682027073337222,0.5427587027951338,0.5603641415763337,0.49676544223255986,8
1025,0.5831161360815322,0.030627628387259936,0.16817173370141655,0.5424308306132654,0.5621873417069398,0.4970547273688859,8
1050,0.584371705918132,0.030404596600430905,0.16795372698172675,0.5419001852889934,0.5655521053229521,0.4949912635121879,8
1075,0.5866599145155653,0.030139499324693515,0.16842190534696225,0.5420983919317615,0.5654882460660579,0.49467564344695636,8
1100,0.5891683019532615,0.0304057258753009,0.16932371456447695,0.543476481156305,0.5659395857496283,0.4926473768068714,8
1125,0.5921082399178734,0.030338251701817167,0.1696672042047897,0.54467144315468,0.5669491755421071,0.4922894875309117,8
1150,0.5956547705874097,0.03038285805918295,0.16998011731064686,0.5435822551181865,0.5658754847201254,0.491675976434876,8
1175,0.5994572591587517,0.030360554880500122,0.17075763490108886,0.5431136001822114,0.5615707476009973,0.49176078685610586,8
1200,0.6015720769194779,0.030160673228506477,0.17041414526077614,0.5424896655690039,0.5583242264347079,0.4930046507390808,8
1225,0.6046799012497902,0.03031566620441678,0.1688245625669358,0.5396972105477794,0.5579202428942059,0.4952226349917877,8
1250,0.6086552302107388,0.029849275683098316,0.16754471619615202,0.5369995867099785,0.5573706852216733,0.49351828663953723,8
1275,0.6129344059712502,0.02942749151914576,0.16623707297586318,0.5372965836228253,0.5586723149924817,0.492445205171826,8
1300,0.6164754321697801,0.029361428939249458,0.16349272973401194,0.5355401072610335,0.5584413112202928,0.4921298348113047,8
1325,0.6203654418301265,0.028784087161951605,0.1598449888832457,0.5322303668861619,0.5574155127076942,0.49217514952769525,8
1350,0.6231699698079766,0.028338870544445973,0.15467318648390105,0.5286300775208479,0.5597844234819723,0.4926512338528421,8
1375,0.625372859104808,0.027873044660562507,0.15012165092636973,0.5260947170520822,0.5615329684976137,0.49298271685569334,8
1400,0.6270544749973166,0.027850741481879552,0.14600493751466778,0.5263785564652975,0.5612705086868521,0.49416312007016433,8
1425,0.6280017944575482,0.027428392680491874,0.1417365327242382,0.5275330896787016,0.5610375451343417,0.49522053033780133,8
1450,0.6287377422311272,0.02702862937650471,0.1382158631854951,0.5280805650149312,0.5616764605408265,0.4958742349741612,8
1475,0.629042139477791,0.026252252903365643,0.1348798441470358,0.5304678724634591,0.5644236387832009,0.49576313867316524,8
1500,0.6292171816558,0.025852771918095915,0.1310144936744298,0.5297443034318772,0.5651632467924067,0.4963809215033512,8
1525,0.6283078430455138,0.02583131569556552,0.12742989138182503,0.5291490324814558,0.561781778111331,0.4979263127419732,8
1550,0.6275751979545386,0.02556395987008814,0.12437660601261738,0.5296131738717474,0.5602994105158566,0.4996213974953748,8
1575,0.6242466443368627,0.025454420207696178,0.12191857032066841,0.5313499980874279,0.5597857887861151,0.5007057401996168,8
1600,0.6213958788025574,0.025277124053102923,0.12092463440193688,0.5342106359944085,0.5604708272953646,0.5030676859062994,8
1625,0.6190647353312729,0.024966855782564884,0.11989932775304961,0.5370100404431137,0.5617947314343856,0.5027071145342109,8
1650,0.6170792726392011,0.02469978227580494,0.11921512815737463,0.5383148569726214,0.559618585960956,0.5027689409745665,8
1675,0.6157857219526561,0.02498746504894272,0.11828155111185412,0.5376130925095576,0.5592674738233828,0.5013516950719338,8
1700,0.6143132759583972,0.024722085454487897,0.1185591225090548,0.5392406602622704,0.5594439095178072,0.5010296384218943,8
1725,0.6126734940455385,0.024766691811853675,0.11802780558565777,0.5409453040497563,0.5588868952935866,0.501487708335802,8
1750,0.6128006473257904,0.024656022874591718,0.11675431278047517,0.5395284463023875,0.5590353820744551,0.5005001373543119,8
1775,0.6127147775780879,0.024766409493136243,0.11479423779251714,0.5371489230848207,0.5613995299283435,0.49842918681531934,8
1800,0.6127153280251885,0.024568221753447587,0.1124303142910354,0.5349570188345371,0.5618196539237583,0.4980784988448426,8
1825,0.6131050445724541,0.02441181718394973,0.10990596325812431,0.5333846010654834,0.5613252772936624,0.4981884135074775,8
1850,0.6138393410047311,0.02434575460405355,0.10747810700278086,0.5326559951785739,0.5592796932954605,0.49747692006674654,8
1875,0.6140567676094908,0.02450018294252886,0.10591949794124621,0.5337093271596086,0.5560473328930767,0.49822791590083587,8
1900,0.6148780346836719,0.024811015850502022,0.10374022494004814,0.5340636513980279,0.5561994647515682,0.49829533171358953,8
1925,0.6140975006949395,0.024566527841142598,0.1019644033545238,0.5353754578492148,0.5586938526653339,0.4980534213575136,8
1950,0.6148328980214179,0.024633155058473768,0.09885314169920552,0.5337024649504021,0.558916966117331,0.49843471599104616,8
1975,0.6158253541439035,0.024478726719998463,0.09602064273463817,0.5315009542302171,0.5581543925546905,0.49755967042411686,8
2000,0.6157829697171529,0.024679173009427107,0.09440167479989245,0.5328692064794207,0.557450225565524,0.49763377698540134,8
2025,0.6152627972070315,0.024522768439929375,0.09362137752449994,0.5361974028640737,0.5564043286381903,0.4986326827771315,8
2050,0.6146551036079055,0.024566810159860158,0.09362137752449994,0.538140504527812,0.555116849675945,0.49954560096828354,8
2075,0.6143077714873907,0.024412664140102288,0.09502472132665626,0.5411273784267593,0.5549327867668146,0.5000118910720723,8
2100,0.6137430127621161,0.024811015850502022,0.0961445372638608,0.5453056695242281,0.5567462349281427,0.49942176972706503,8
2125,0.6135250357102557,0.024855057570432933,0.09701457865336971,0.5444985765354684,0.5585991915781021,0.49914628077598017,8
2150,0.6125270751167636,0.024433555725197557,0.09751452484661101,0.5445328875815009,0.5606893797782099,0.49918974054309456,8
2175,0.612441205369061,0.024412381821384853,0.09788938521707947,0.5423837015958826,0.5612666602357997,0.49949285307775043,8
2200,0.6119210328589397,0.024322604469218165,0.09842070214047653,0.5432553984062231,0.5608242832050497,0.498421265379288,8
2225,0.6122248796585026,0.024520227571471695,0.09876458887863934,0.5431550537819028,0.5614518125438607,0.49864132434371106,8
2250,0.6114437952226697,0.024563422335250048,0.09864029725156664,0.5422747254773674,0.5611106870372149,0.49846605170267566,8
2275,0.6107529841113445,0.0243641053206914,0.09867206507957244,0.5407371638685591,0.558882216282514,0.4999132354164618,8
2300,0.6105394106362894,0.02423198016089905,0.09873520363773397,0.5413610797921364,0.5603956843686071,0.4990851142695016,8
2325,0.6104535408885868,0.02447618585154091,0.0987971509023453,0.5421308371297164,0.561334532917997,0.4983332065673186,8
2350,0.6101067592151725,0.024409276315492306,0.09957625688418759,0.5428293620568859,0.5626282752129973,0.4981825030861663,8
2375,0.6096768600295591,0.024542813068872214,0.09957943366698817,0.5432691352843896,0.5628131487714624,0.4983711661422886,8
2400,0.609421452574854,0.024455294266445642,0.10042128110914193,0.5425556773427234,0.5632513786908788,0.49853668246357374,8
2425,0.6097258498215176,0.024255130295734437,0.10154189124204661,0.544337808336846,0.5617402501103219,0.4978045371056016,8
2450,0.6090366900514944,0.024123005135942083,0.10331334475122017,0.5453144785699093,0.5611288185606693,0.49796817172353447,8
2475,0.6084735826675218,0.02461141651722594,0.10558315606223476,0.5468308679426866,0.5629443146782115,0.4985299827970176,8
2500,0.6079567128400043,0.024834165985337407,0.11097217098556905,0.5526116421942573,0.5645424927754042,0.4984738638928962,8
2525,0.6069631558233175,0.02510180412953235,0.11629765025289177,0.5586032790831515,0.5678312928599814,0.4972345771864404,8
2550,0.6080012990551575,0.02543409326003578,0.12084442063622221,0.5592886402808129,0.5694204343503793,0.4974369316410058,8
2575,0.6066185759383059,0.02541235471878795,0.1236145752383282,0.5556958392273158,0.5703921568635817,0.4962472180080527,8
2600,0.6060620739195413,0.025412354718787823,0.1256048296628917,0.552212845980876,0.5721722148054682,0.49713706972659577,8
2625,0.6058479499973853,0.025522741337332344,0.12884038294528272,0.5500007039760693,0.5688175203075089,0.4976743250172338,8
2650,0.6064061033574522,0.02612069238100829,0.1320131947673622,0.5527989340930128,0.5665959841600997,0.4967812605800527,8
2675,0.6054538298733146,0.0266308423035401,0.13531148951006464,0.552310667505125,0.565822657405143,0.49746685161610843,8
2700,0.6046771490142868,0.026919654351547743,0.13746217146605746,0.5518858833610085,0.5647849395029396,0.4988748606739684,8
2725,0.6040314745652157,0.02720790176212052,0.13898980689528648,0.5498406459833929,0.5643523101748923,0.4985746888581769,8
2750,0.6036857937860027,0.026853027134216573,0.13718301167745647,0.5439420772228107,0.5603619058907999,0.4989181911297151,9
2775,0.6079627677581115,0.033165391338913434,0.13391330797995926,0.5338746805474965,0.5584945723037789,0.498286605425769,9
2800,0.6059332692979874,0.039234961446555854,0.15223341729305542,0.5544177987079485,0.5575256557750282,0.49467559885682955,9
2825,0.5923757572087929,0.051905425488185476,0.20121186321885134,0.6256827290747474,0.5584427618559445,0.5044470658732285,9
2850,0.5675874729248833,0.08218551953419655,0.26894404931002264,0.7174434866078209,0.5630906027505335,0.519815068691592,9
2875,0.5362763904981822,0.1277706758935951,0.34798478797555943,0.8150843631215718,0.5699859618148068,0.5335357472414011,9
2900,0.49538257449613454,0.1796684787764081,0.4228206575066782,0.8739866669424425,0.5756698452696406,0.5501937847895653,9
2925,0.45656064138096175,0.2322757485963113,0.49874656063624606,0.8946056245071388,0.5809945086713616,0.5679997505628305,2
2950,0.41847025246256275,0.28572517515053236,0.5735502652415089,0.9036921925066793,0.5819620769622713,0.571293208543553,2
2975,0.38184900685581874,0.33881831548326186,0.6489774134713856,0.9058022891308213,0.5820104741497488,0.5737725622836842,2
3000,0.3443173217445871,0.3936403756419927,0.7256180927310841,0.9090820949480559,0.5822183217947996,0.5744623559391936,2
3025,0.3041544994922126,0.4466208708064378,0.8050309120821388,0.9170469611845039,0.5827592097860256,0.5765685103833182,2
3050,0.26316765793015384,0.4940196426070891,0.8688024442166867,0.9117082434102545,0.5829962635621971,0.5802231796044492,2
3075,0.23327893081155174,0.5397798365713408,0.9028241996195006,0.8508689681243373,0.5823985846073992,0.5800668243247213,2
3100,0.21591727880971323,0.570502041728965,0.9153780510516936,0.7624394938798315,0.5758754216743622,0.5685131545946274,2
3125,0.20723617758524365,0.5825948816745791,0.914104161148661,0.6613501314067897,0.5694007270383935,0.5557461607594243,2
3150,0.20386964311762235,0.5865148770671377,0.9147613580905312,0.5922563286514149,0.5669344345239407,0.5390178045812498,2
3175,0.2041718385758833,0.5894168311643726,0.914235203439185,0.562199624936502,0.5613215938168606,0.5199179091306054,2
3200,0.20132217393577936,0.5913862865376883,0.9147041760001207,0.5496031568529703,0.5615337080373576,0.5141028638711251,2
3225,0.19890185803418828,0.5931821158997385,0.9151735456589064,0.5452347610674072,0.5613848557531925,0.511017519159848,2
3250,0.19618319980404086,0.5941329653402957,0.9147089411743214,0.5453557733077443,0.5618688987375577,0.5095338406567581,2
3275,0.1926454762881151,0.594398062616033,0.9140866888432577,0.5413240244854091,0.5627484049112589,0.5071411032379934,2
3300,0.19048937499483962,0.5943543032148196,0.9128147844294754,0.5378129781041016,0.562816210750441,0.5089434696070407,2
3325,0.18885674889428938,0.594619965127992,0.9125959835140857,0.5381482638392663,0.5621480152588609,0.5061990030383378,2
3350,0.18644358880500692,0.5952619578915986,0.9118502337516492,0.5413290395361682,0.5624803459313203,0.5006979012553202,2
3375,0.18467610316479566,0.5960126433614448,0.9111640486667238,0.5464319689363395,0.5631462289390086,0.4956787964482671,2
3400,0.1835548424207563,0.5966103120864031,0.9104774664839486,0.5448804461738028,0.5626243300529015,0.4966127478022446,2
3425,0.18221945775456114,0.5968745624059878,0.9101010177220799,0.5449305935664562,0.5625239972647098,0.49630293783053897,2
3450,0.18187597876375092,0.5973378474214137,0.9097261573516113,0.5453386536065193,0.5622909554916495,0.49481076490828807,2
3475,0.1808009555761668,0.5987087871136185,0.9092889526186815,0.5462094003606601,0.5618117863586356,0.49544753421447807,2
3500,0.17842907901943356,0.5991291596839836,0.9091348786528534,0.5464698434718555,0.5627548076188118,0.49704486403283116,2
3525,0.17665884114371908,0.5996607658290458,0.9089168719331635,0.5429615413512429,0.5622630136890527,0.5015594003417186,2
3550,0.17540712443682388,0.5999941842344194,0.9085106408325393,0.542840765846221,0.562262471833971,0.5000110237941054,2
3575,0.1744977858265376,0.5999281216545231,0.9082600720891436,0.5424239216799834,0.5622325759398199,0.49827562287753085,2
3600,0.17471356108999536,0.6002827139637096,0.9077597287980523,0.5428789487606346,0.5615595521070268,0.49722835909325397,2
3625,0.1756630823386296,0.5999501425144886,0.9083514045946602,0.5396847507943404,0.5602909626964733,0.5004444242203446,2
3650,0.17721644405668507,0.600415968398372,0.9088847070073078,0.5408545472057072,0.5593563892556804,0.4999620170152134,2
3675,0.17850889384902888,0.6008143201087717,0.9094466004651605,0.5409336105711539,0.5586264094850648,0.5011353303995185,2
3700,0.17859531404383214,0.6015034600982018,0.9092599644756262,0.5408420531879463,0.5586351915195248,0.5035637510672786,2
3725,0.17893879303464236,0.6013250346687385,0.9092611557691765,0.5399167638631267,0.5594660231783446,0.5045842518574324,2
3750,0.18031986481019213,0.6014365505621531,0.9092297850390207,0.5387310750362485,0.559314785878505,0.5029516155766557,2
3775,0.18178790722764573,0.6016141290354637,0.9094791624888662,0.5414089937739858,0.5591147958432342,0.4991684019379003,2
3800,0.1831706303444973,0.6018137283687398,0.9096669897719506,0.5437120888639583,0.559359913446999,0.49588570801379445,2
3825,0.18468325897710422,0.6018360315474227,0.9102590626664088,0.5439845618670991,0.559289233358158,0.4944437970825059,2
3850,0.18520012880462158,0.6014134004273176,0.9110099747008957,0.5428769614299611,0.5593133707976488,0.4952194334206813,2
3875,0.1848131644928594,0.6016141290354637,0.9111048810870631,0.540846778549438,0.5596192956346719,0.49751993170308634,2
3900,0.1844696855020491,0.6015698049968154,0.9108860801716732,0.5415116216481238,0.5604755902157543,0.49880964315446746,2
3925,0.18352291648891816,0.601769686648809,0.9106370998196777,0.5400442022212999,0.560524270419403,0.5007839869541774,2
3950,0.18278972095084237,0.6016578884366771,0.9105120139969051,0.5417465316095846,0.5617204489336763,0.4987834174713726,2
3975,0.18188588681156276,0.6018800732673535,0.9104175047085878,0.5426033981983944,0.5615109472795442,0.49678015920391994,2
4000,0.18107012420838828,0.6018354669099878,0.9104492725365936,0.5428682987863827,0.5615853193783379,0.4964355644742745,2
4025,0.18003803589465545,0.6019023764460365,0.9100104794122633,0.5423326352964132,0.5615672433203643,0.49668771495297687,2
4050,0.17943474587233488,0.6014574421472484,0.9099175585153463,0.540708640377999,0.5614724513914855,0.49817496958423846,2
4075,0.17891732559771673,0.60154665486198,0.9096054396051892,0.538582835119709,0.560692291004856,0.5015519627085635,2
4100,0.17852926039175324,0.601323623075151,0.9091678377744095,0.5378592536283737,0.5606323299757277,0.5038676729127365,2
4125,0.17831513646959746,0.6012558665829498,0.9089815988827253,0.539369867905432,0.560899359288792,0.5015931193956272,2
4150,0.17822926672189485,0.6010105316174378,0.909012969612881,0.5392384019319595,0.5606607681232679,0.5006578816164906,2
4175,0.1782292667218949,0.6007214372507126,0.9094473946608603,0.5407168980795907,0.5605976811165294,0.49743742213240083,2
4200,0.17943694766073745,0.6004326252027048,0.9098842022959402,0.5408625370225999,0.5600459389573684,0.49669634983103744,2
4225,0.1800402376830581,0.5998541541505369,0.9099791086821076,0.5408649635595821,0.5598570576623675,0.4954533799801054,2
4250,0.18072719566467868,0.5994552378027022,0.9096344277482445,0.5410639271323716,0.5602103770416382,0.4948415098007371,2
4275,0.1822315675907757,0.598589930933549,0.9103841484891816,0.5400960597151128,0.5600235792576469,0.4951843766629679,2
4300,0.18360768534241942,0.5980377155221089,0.9101335797457859,0.5379395411645957,0.5589375352775569,0.49772503513897076,2
4325,0.18403758452803295,0.5970877130377042,0.9104766722882484,0.537793160866257,0.5592994845167634,0.49753334887224937,2
4350,0.18528599855232414,0.5962277702241836,0.9112871490002465,0.5376119119479192,0.5594582736551426,0.4975773236553287,2
4375,0.18618763090320115,0.5953884366770409,0.9112557782700909,0.5379106688009394,0.5590257125923024,0.49717479966241257,2
4400,0.187218067875632,0.5945502324047681,0.9112871490002465,0.5384028290617768,0.5594550410131461,0.49616448102772037,2
4425,0.187518611992591,0.5938667387896883,0.9109762213836395,0.5385104937912426,0.5598415842154161,0.4966281157894564,2
4450,0.1877762212356987,0.5932916555621305,0.9106664850605831,0.5388954877127519,0.5602759258624093,0.4959096640594336,2
4475,0.18820556997421162,0.5929170186240011,0.9106668821584333,0.539368690458732,0.5602996949542197,0.4973961138389059,2
4500,0.18794796073110387,0.5925867057245201,0.9113538614390587,0.5384542753837261,0.5599981945559342,0.499129925117459,2
4525,0.18773328636184744,0.5925644025458373,0.9110747016504578,0.5404091359397726,0.5601957554875844,0.49887115077541616,2
4550,0.18747567711873975,0.592498339965941,0.9117311043966274,0.5408493265690163,0.5605520998688465,0.4988198676705495,2
4575,0.18747567711873975,0.5929607780252145,0.9116993365686218,0.5421384251195607,0.5604967453190082,0.4979720265399989,2
4600,0.18726100274948326,0.593490407939254,0.9112009787667807,0.5440921611828592,0.5608825134267387,0.49634904179217443,2
4625,0.1871751330017807,0.5937766791188042,0.9115432771135433,0.546042962974223,0.561530454062484,0.4937316570849358,2
4650,0.18734687249718587,0.593930825138562,0.9113256674917034,0.5456774280726469,0.5612061274855616,0.4930250819351941,2
4675,0.188119700226509,0.5938867834186312,0.9114193825843205,0.5434122978514028,0.5608163146643081,0.4951490479054808,2
4700,0.18854904896502192,0.5937326373988734,0.9117295160052271,0.5423585484686279,0.5601987833339593,0.49599953323055235,2
4725,0.18902133257738596,0.5934023244993925,0.9122584503415239,0.5403108035656325,0.5599463940634426,0.4986671509451708,2
4750,0.18923600694664244,0.5932253106635167,0.9122250941221178,0.5406586549621404,0.5599152907284402,0.4982106907348416,2
4775,0.19018057417137074,0.5930491437837935,0.9120988170057948,0.53993880516696,0.5600070846769721,0.4984879164713666,2
4800,0.19082900085594523,0.5936236623739165,0.912439924059007,0.540889094987055,0.560161085295509,0.4991247103021263,2
4825,0.19298620304342207,0.594065491166812,0.9128747462048366,0.5435277250072609,0.5591024711289622,0.49797810863329844,2
4850,0.1947096529155807,0.5941098152054602,0.9134040776389832,0.5422330164527307,0.5586881098547833,0.5001430306350781,2
4875,0.19630374771908488,0.5941538569253911,0.9136212901629729,0.5397624871960459,0.5582190539277686,0.5012886624686475,2
4900,0.19656245785639387,0.594374065525045,0.9143972193620145,0.5403518210739535,0.5587116897950823,0.5017984413231331,2
4925,0.19695107350945806,0.5949036954390847,0.9147085440764714,0.5422647047206642,0.5595141842819807,0.4997067697522028,2
4950,0.19703914504556327,0.5955869067354471,0.9148943858703052,0.5432104685353224,0.5600199882233131,0.49985894470754044,2
4975,0.19772610302718385,0.5962715296253969,0.9149563331349166,0.5449312726230185,0.5602853649494879,0.49750197079999936,2
5000,0.19849948120360772,0.5969569994714993,0.9150516366189341,0.5444910695340214,0.5602101523353314,0.4975764519183492,2
5025,0.1993196473835874,0.5976190368640488,0.9153331789946354,0.545153573313999,0.5597175122014423,0.49761325437952797,2
5050,0.20018054664901572,0.5977514443425588,0.9155809680530806,0.5458906860975692,0.5599429040047276,0.4949089590560859,2
5075,0.19875103552860812,0.5975961690479309,0.9157358362146091,0.5438597400571479,0.5608192330019133,0.4951784863072137,2
5100,0.19875158597570877,0.5972864654148278,0.9155488031272249,0.5432902078423931,0.5615374853788193,0.49380220535409924,2
5125,0.19724170957860526,0.5976630785839797,0.9154558822303079,0.5426878504072035,0.561550575232288,0.49378434477879773,2
5150,0.1971118040628501,0.597464890844291,0.915549200225075,0.5428655109165507,0.5616068428292719,0.4974865247800656,2
5175,0.1957775202908563,0.5974197198494903,0.9152084902697127,0.5424268746415485,0.5612865623880642,0.4969996273491626,2
5200,0.19487368615157663,0.5975306711054698,0.9147411061001774,0.5414746847090542,0.5615836355032284,0.4976691614805469,2
5225,0.19375737943144325,0.5977514443425588,0.9142439395918865,0.5416498781872205,0.5616368226327401,0.498615123185186,2
5250,0.19255465251650658,0.5978838518210687,0.914398807753415,0.5430520676898534,0.5619282354244791,0.4965128659181463,2
5275,0.1902758015197845,0.5980625595692494,0.9141808010337251,0.541986079714263,0.5620001414426649,0.49853101282894735,2
5300,0.18855400298892777,0.5984854730080721,0.913370721419577,0.5415508792162715,0.5624420946602539,0.500426797743209,2
5325,0.186616979641714,0.5986630514813828,0.9126571365829969,0.5417340936607142,0.5627428100086572,0.4998824905240128,2
5350,0.18507022328886644,0.5991291596839836,0.9120984199079446,0.5429393567602449,0.5626122684441152,0.49860077854138496,2
5375,0.18317668526260464,0.5993711068248855,0.911569485571648,0.5434739549412952,0.5625907492597566,0.49876484345404176,2
5400,0.18184460327901342,0.5999478839647485,0.9110421396267517,0.5430339138290928,0.5622508880816348,0.49738488158595756,2
5425,0.1813723196666493,0.6002587168727217,0.9109178479996789,0.5435352382385846,0.5621354260169112,0.49856741174947833,2
5450,0.18085710118043385,0.6007033688527922,0.9110115630922961,0.5432990168880744,0.561274630198733,0.49918111904207213,2
5475,0.17986739729345166,0.6007925815675239,0.9109801923621403,0.5430640352830314,0.5611035177682736,0.4984954744978642,2
5500,0.17943639721363683,0.6005926999155302,0.9106704560390839,0.5415515489280189,0.5612135043945079,0.49954655965601036,2
5525,0.17943639721363683,0.6007471282540056,0.9104222698827886,0.5418277660870681,0.5612559937971843,0.4978930128352569,2
5550,0.17891842649191808,0.6004591631621503,0.9105159849754054,0.5411867834162176,0.5608274504262226,0.4971916837139366,2
5575,0.1788320062971149,0.6001477656167422,0.9104206814913881,0.5420563278041516,0.5609689642006203,0.49609546888842626,2
5600,0.17796890524328393,0.5996816574141413,0.9104834229516996,0.539164500019375,0.5608849155087149,0.49929559973369436,2
5625,0.17792541992233196,0.5995481206607614,0.9103893107612323,0.5377334911070378,0.5605397438663544,0.5017228588286505,2
5650,0.1776667097850229,0.5991043156368433,0.9101391391156868,0.5394931384760799,0.5607672134918821,0.49890500805871785,2
5675,0.17779496395947608,0.5989933643808638,0.9101387420178366,0.5389758718120631,0.5607913324428792,0.498814556986444,2
5700,0.177619921781467,0.5987031407392684,0.9099191469067468,0.5398970276136794,0.5605890541009773,0.4988231205203017,2
5725,0.17710085016554697,0.5982822035314683,0.9096364132374949,0.5401592057455412,0.5610257181872049,0.4970769154159963,2
5750,0.17753405203376446,0.5979956500332007,0.909417215224255,0.5387073547806392,0.560725593048405,0.49855751720033487,2
5775,0.17727479144935476,0.5973756781295595,0.9091368641421038,0.5393232808873238,0.5603939464502087,0.4978773483237016,2
5800,0.17766230620821763,0.5971102985351047,0.9095101361211719,0.5398760142395047,0.5606710534144768,0.49750411781460624,2
5825,0.17843623483174212,0.5967334030472353,0.9097932668882736,0.5394181369902544,0.5598885108565564,0.4970709046668997,2
5850,0.18024555445160337,0.5970662568151739,0.9099159701239461,0.5409967254521987,0.5596999623544404,0.4977751834251097,2
5875,0.1809776490954778,0.5970001942352776,0.9101331826479357,0.5437460697265246,0.5594563124526292,0.49485575634625917,2
5900,0.1818368970196042,0.5972887239645679,0.9101030032113302,0.543027316389647,0.5598199228118761,0.4948122296939544,2
5925,0.18235431729422225,0.5972887239645679,0.9103833542934813,0.5432356933061594,0.5596210648412904,0.4961476571728676,2
5950,0.18166570797129977,0.5974448462153482,0.9097277457430116,0.5428093111986645,0.56042325497914,0.49577537643347364,2
5975,0.17755992304749538,0.5985086231429074,0.9056126207227101,0.5417034800465147,0.5610574785748261,0.4992551921607614,3
6000,0.17086153227959416,0.5995512261666539,0.9052997076168529,0.5454472933116916,0.5693834445634529,0.4962573488848684,3
6025,0.1372583881257552,0.5973358711903912,0.8902500961969542,0.5398176340647666,0.575163943197073,0.5059416377443027,3
6050,0.09644548784750412,0.593705534801993,0.8699345701872434,0.4892946919830583,0.5934792948988584,0.5393283123884404,3
6075,0.05736099146531775,0.5988894710928219,0.8487156465686178,0.4557702426449764,0.5988879401494694,0.574397662353683,3
6100,0.03080191885859294,0.6184651686459091,0.8369051623117607,0.4499966047171879,0.5967407064134549,0.6243714606377813,3
6125,0.020606537660214592,0.6479635221631486,0.8339436065459197,0.45354814529717197,0.5743722090134499,0.6892897023549952,3
6150,0.0057048337512144425,0.6803186587828224,0.8211967655585916,0.44554274436784885,0.5745571579480812,0.7465599503051955,3
6175,0.008037078116700227,0.7121204507161861,0.8191687868382712,0.435264908686828,0.5742471414652052,0.7866865519309938,3
6200,0.0057874008163131185,0.7407546266391425,0.8155198546939546,0.4066350741311721,0.5715145762437338,0.8253723038705223,3
6225,0.0,0.7653135318749125,0.8135875765555018,0.3799499890416469,0.5807087618918151,0.8475623307825588,3
6250,0.002462149881241014,0.7905790808605977,0.8130276685868995,0.36234329835340623,0.57675765134539,0.8508687867852521,5
6275,0.017403485981488442,0.8154697105894363,0.8201901225086577,0.3618214153507402,0.5746318045298952,0.8440833823332379,5
6300,0.04862649687208443,0.8433043599044182,0.8355808409817688,0.4059380163399699,0.5540175039358056,0.8104665512904566,5
6325,0.08239807783872449,0.8656244777103727,0.8540887775779493,0.4422443953225587,0.5464152686069575,0.777147484196618,5
6350,0.10878320916164153,0.8727998902344827,0.8671429723012336,0.4547115560849013,0.5439534005312424,0.7276692048444452,5
6375,0.11154755450114362,0.8686571453738124,0.8667383295920098,0.4447699686549983,0.5649266680283015,0.6636132180162796,5
6400,0.118975287677416,0.8588462876217923,0.8757754824639603,0.4481376686879294,0.5712940170482371,0.6045603548937112,5
6425,0.10964355797996926,0.8489668264214182,0.8760280366966064,0.4560161607986004,0.5675468431193705,0.5619931929381233,5
6450,0.10376643428624896,0.8421666154728725,0.8758751540243286,0.48027579290444455,0.5736263661153254,0.5226869404001788,5
6475,0.10622638237908741,0.8380910624669687,0.8769981467443337,0.5097713747381739,0.5640700221658407,0.49327106782886226,5
6500,0.10747809908598265,0.8353661222056094,0.8781529072923444,0.5306968422374677,0.5587192757662256,0.48549892400122324,5
6525,0.10890155528828296,0.832996621209589,0.8791817878218823,0.5347548375304221,0.5573354774410917,0.4866115591409387,5
6550,0.11011253890972951,0.8311358585425126,0.880241641983726,0.5321038194003594,0.5583308054940459,0.49290629606682645,5
6575,0.11067399495240003,0.8300048897601872,0.8803965101452544,0.5338376127810157,0.5582573307982878,0.495218242864295,5
6600,0.11102077662581433,0.8288533117114837,0.8806161052563444,0.5352489259381041,0.5599833155851617,0.49772818766093757,5
6625,0.11348512829545804,0.8286754509194556,0.8810834894258798,0.5375572229751374,0.5593778757296273,0.49781578273558796,5
6650,0.11698432051433781,0.8291839069296824,0.8821421522941731,0.5411973056779968,0.5577349938771016,0.4975715046437774,5
6675,0.12135046691675312,0.8294738482525601,0.8837305436944634,0.5440725775653916,0.5561172677534064,0.49679717479631813,5
6700,0.12480837560308361,0.8301841621458029,0.885163669835375,0.5439765315560077,0.5553504987249105,0.49704268134612284,5
6725,0.12675255476260597,0.8305842077685077,0.8862564831187746,0.5451592425018138,0.5561249874105803,0.4969742511079839,5
6750,0.12856903019477572,0.8309625148499646,0.8871289070953841,0.5442401363296382,0.5572920380142826,0.49713432966330207,5
6775,0.1312486066807765,0.8315618774872279,0.8873461196193737,0.5437871183842292,0.5576160929525684,0.49809056047415,5
6800,0.13388414739872465,0.831871016482896,0.8887172984956742,0.5426289905319579,0.5574445965303187,0.499731280944921,5
6825,0.13539787692553282,0.8320714627723247,0.8895893253744334,0.543602495987648,0.5571511670705855,0.4977367066046684,5
6850,0.13690995511103896,0.832313692231944,0.8905526847587093,0.5432788476621951,0.5581180299543548,0.49633274410081824,5
6875,0.13656262299052407,0.8330228768503168,0.890522505322104,0.5437348372587995,0.5586706823162776,0.4969247783622664,5
6900,0.13418524196278425,0.8331787167823798,0.8901790156817911,0.5438381130401163,0.5608717374793536,0.49831847398941415,5
6925,0.1328030692930333,0.8330448977102822,0.88946106276886,0.5434042363909278,0.562222037498468,0.4964510840679176,5
6950,0.1308561378980077,0.8331115249276134,0.8886172298374558,0.5422066703040841,0.5624858000369323,0.4967603411220506,5
6975,0.1290396624658379,0.8326888938075083,0.8876185287445235,0.5413357241938882,0.5627662619516929,0.49805248942386293,5
7000,0.12830261379805752,0.832843039827266,0.8869942909242094,0.5403365018071004,0.5628184265252892,0.4987410769164416,5
7025,0.12674649984449873,0.8327772595660874,0.8868997816358921,0.5401781819500286,0.5621887468324535,0.5000187936237055,5
7050,0.12540506026019638,0.8330225945315993,0.8865245241675737,0.5413838001525323,0.5621626965449711,0.4983917467153268,5
7075,0.12454030786506343,0.8328004097009228,0.885868915617104,0.5426909341961796,0.5618891877259959,0.49733403992334646,5
7100,0.12467021338081859,0.8328232775170408,0.8857438297943311,0.5424737482339858,0.561172245187752,0.4962625480936567,5
7125,0.1249729592861802,0.8327795181158274,0.8857434326964809,0.5415017815578455,0.5606262813939368,0.4978664103655904,5
7150,0.12475553268142049,0.8326462636811651,0.8857748034266366,0.542462771191206,0.5602295922752559,0.49541943797556276,5
7175,0.12432508304870629,0.8324458173917364,0.8857740092309364,0.5409909939656169,0.5606928342821295,0.49773581034311914,5
7200,0.12454250965346607,0.8318012837596721,0.885929274490315,0.5400852913732032,0.5607268260887088,0.49840321083693473,5
7225,0.12527955832124651,0.8317349388610585,0.8861155133819989,0.5402948675409842,0.5597753555869575,0.4956735838624407,5
7250,0.12606229409838143,0.8319125173343692,0.8864590030223117,0.5422619853794761,0.5593957740136238,0.4964765673254007,5
7275,0.12606009230997878,0.8314455621756158,0.886959346313403,0.5427644778908528,0.5595617679757398,0.4958541917121513,5
7300,0.12662430058815272,0.8310463635090635,0.8868354517841804,0.542006143032238,0.5596376262649805,0.49435689984334036,5
7325,0.1260589914157775,0.8308024401371392,0.8860893049238941,0.5406050406430928,0.5601138884379238,0.49618746723810103,5
7350,0.1251936885735439,0.8307583984172082,0.8857485949685319,0.54053607279287,0.5613253924911995,0.4975008671943603,5
7375,0.1245848940802167,0.8304701510066356,0.8854670525928305,0.5410302920279632,0.561534729171081,0.49755630386954125,5
7400,0.12493277664783221,0.8301141471038617,0.885031833349151,0.5390576981278349,0.5611963584499817,0.499313930734834,5
7425,0.12532304364219843,0.830247401538524,0.8851569191719237,0.5401127059457071,0.5606181180129165,0.49855558644784315,5
7450,0.12558395556791005,0.8304921718666011,0.8853431580636077,0.5408144735237093,0.5604421644415174,0.498953486444607,5
7475,0.12545349960505423,0.8305141927265665,0.8853141699205525,0.541795277279976,0.5606054718832941,0.4998328082046992,5
7500,0.12337721314137408,0.8298922445919027,0.8847228912217945,0.5392796842100411,0.5614466087440081,0.5002677625968586,5
7525,0.12234347348633931,0.8301138647851442,0.8839433881421022,0.5375498094218413,0.5629731937052146,0.5013889322868491,5
7550,0.12139340179060445,0.8302917255771723,0.8834775923639672,0.5406398376195093,0.5622800586579602,0.5002490570386535,5
7575,0.12027214104656508,0.8306025584851455,0.8837579434461182,0.5421302452914281,0.5619679373311973,0.49955191270073623,5
7600,0.12044498143617152,0.830957150794332,0.8839437852399523,0.54185336153557,0.5612808565545009,0.4991902644770848,5
7625,0.12061892271997932,0.8311564678088905,0.8841919713962477,0.540547962512589,0.5606941142547632,0.5015828815025072,5
7650,0.12027434283496773,0.8315788166102782,0.8836622428642508,0.5423700706256204,0.5604405516759988,0.49928948196829337,5
7675,0.11945307576078669,0.8317126356823756,0.8830086198030314,0.5433742582241537,0.561305568559485,0.4982121265369255,5
7700,0.11836924541959208,0.8317792628997069,0.8827290629165803,0.5415164311129512,0.5618252346044419,0.4988944870182924,5
7725,0.1176327471989123,0.8316454438276094,0.8821683607522779,0.5417734789413347,0.5614648967085621,0.4972387329862609,5
7750,0.11858116755334522,0.8318227399822026,0.8816088498815259,0.5419818932371074,0.5613350164632142,0.4986016569668835,5
7775,0.11974261093573257,0.831734656542341,0.881982518958444,0.5427714428930253,0.5597206296459015,0.4970460635072429,5
7800,0.1205644284570142,0.8315121893929469,0.8826659243584188,0.5421716708566741,0.5591006407680957,0.4962514228570127,5
7825,0.12203357176866915,0.8313555025047317,0.8829462754405701,0.5406601625923065,0.5589797359752946,0.49754441614172845,5
7850,0.12285649018415212,0.8308690673544703,0.8833223271045888,0.5422267959208262,0.5587088411448762,0.4948688636140407,5
7875,0.1243267343900083,0.8304715626002231,0.8842563012479594,0.5431187709798886,0.5584946832347405,0.49178739378478514,5
7900,0.12618394290762674,0.8295864934208446,0.8852550023408917,0.5428927790869518,0.5578092849109616,0.4913096507069201,5
7925,0.12998643147896882,0.8285676051693687,0.8866587432408982,0.5399448855266383,0.5569700537872803,0.4928165160759614,5
7950,0.13391772467186477,0.8276593858551546,0.8879080130772263,0.5406815248395775,0.5555709370341028,0.49193694907017155,5
7975,0.13776645079966207,0.8266404976036787,0.8901182597107301,0.5395082085478644,0.5555025196524402,0.494063956087108,5
8000,0.14165701090710933,0.8257094104733468,0.8921426645503998,0.5407629212938557,0.5547350395280367,0.4907917586788579,5
8025,0.1448578607974327,0.8248895569177119,0.8935753935934614,0.5407884108344533,0.5551586820260026,0.4914987886478932,5
8050,0.14701726477331217,0.8240039231008984,0.8937945916067015,0.5385114687669492,0.5565503066726966,0.49622839428601156,5
8075,0.1492647402852967,0.8230739652454366,0.8948242663319396,0.5376848731491193,0.5577819944722163,0.497550315415508,5
8100,0.15107516079935926,0.822630442540236,0.8950422730516293,0.5372969979096271,0.558057070546572,0.4979596394027656,5
8125,0.1515457930704215,0.8220539477190906,0.8953543919617863,0.5391284975618131,0.5585811411195812,0.49800217838376104,5
8150,0.15171918390712866,0.8220319268591252,0.8955100543190149,0.5391751468786885,0.5598484505575008,0.49825642236891804,5
8175,0.1514164380017669,0.8218981077870279,0.8956978816020991,0.5412621929589685,0.5601506065862132,0.4976899137255734,5
8200,0.15089681593874624,0.8221200102989867,0.895603769411632,0.5408859520142499,0.5607247511108502,0.498987691530898,5
8225,0.1499483955843134,0.8220977071203039,0.8947952781888843,0.5420314830557944,0.5613429067834059,0.4975578288518788,5
8250,0.1490423596566311,0.8218537837483795,0.8947635103608785,0.540734201562179,0.5617015408934908,0.49885696665607165,5
8275,0.14865209266226495,0.8215214946178759,0.8947647016544286,0.5396260715855199,0.5614807683692218,0.4999827068340623,5
8300,0.14783082558808397,0.821056515690145,0.8947023572919673,0.5419092186102367,0.5607257324232028,0.4947063950279244,5
8325,0.14696497229874964,0.820612710666227,0.8943890470882602,0.5436247491072898,0.5604247397473954,0.4906455654890344,5
8350,0.14713891358255743,0.8202355328596402,0.894422006209816,0.5418226980823567,0.5609822972488896,0.49471972301683376,5
8375,0.14752973102402428,0.8197465568409213,0.8942659467547376,0.5401677905156607,0.5603685432600024,0.4963981511283582,5
8400,0.14783302737648654,0.8192118451899666,0.8942659467547376,0.54024225311715,0.5603218626580461,0.4970812339697797,5
8425,0.1476156007717269,0.818900729963276,0.8945161184002833,0.5401476430943499,0.560341769076886,0.4969400148086041,5
8450,0.14735578974021657,0.8181466566688197,0.8941094902018091,0.5404958495938307,0.5602996935320279,0.49622081396445056,5
8475,0.14649048689798294,0.8178143675383163,0.8940149809134917,0.5406742857228296,0.5604415301439678,0.49533094440985675,5
8500,0.1455371125196441,0.8176370713837231,0.8935483909396565,0.5403453638067338,0.5611612160902236,0.49674876775463195,5
8525,0.14471529499836241,0.8176822423785239,0.8927391055212086,0.5425844095341535,0.5614775599044863,0.4950390841937063,5
8550,0.14501694000952278,0.8178132382634463,0.8927700791535145,0.542619873107379,0.5611355995712449,0.4964890102002925,5
8575,0.14579747399825507,0.817791782040916,0.8931151571852273,0.5404172410093845,0.5606435524913428,0.5007799470886867,5
8600,0.1461860896513193,0.8178135205821637,0.8929583035344488,0.5405900359850139,0.5601384326242735,0.49988882009251623,5
8625,0.14701065940810426,0.8180577262728057,0.8928022440793701,0.5414938945339187,0.5601053780421005,0.4992564629793761,5
8650,0.14670681260854132,0.8179032979343305,0.8928963562698375,0.5406118779327923,0.5603870445533287,0.500293248083848,5
8675,0.14640296580897835,0.8177711727745379,0.8930210449947603,0.5381420090430399,0.5608815648247979,0.5028611020782042,5
8700,0.14644479978862834,0.817770608137103,0.8933645346350727,0.5388297500536081,0.5610409185733278,0.5013421951454127,5
8725,0.14627195939902182,0.8176825246972413,0.8936444886193742,0.5391459910556414,0.5608074800087509,0.5018404697471763,5
8750,0.1468345163358939,0.8176158974799103,0.8944867331593779,0.5398108777634643,0.5604543696916771,0.5007522142593049,5
8775,0.147526978788521,0.8175272494026137,0.8949211582073573,0.5380152372816756,0.5602077701640408,0.502300086938485,5
8800,0.14809173751379565,0.8173510825228903,0.8957312378215052,0.5374448982978856,0.5602333980605538,0.5038803788693765,5
8825,0.14869888066582085,0.8173728210641382,0.8962605692556519,0.5377415899467732,0.5599242306261917,0.5019570194206835,5
8850,0.14939299445974996,0.817306193846807,0.896726762131637,0.5392879730610163,0.5597772328801538,0.5006672522316439,5
8875,0.14917556785499025,0.8170619881561652,0.8972576819571839,0.5401553307622217,0.5597479158180715,0.49958259070799504,5
8900,0.14943592933360123,0.8168638004164765,0.8977246690288693,0.5385336408981938,0.5603885150996658,0.5007729196846983,5
8925,0.14995665229082325,0.8167536961166496,0.897662721764258,0.5410427144021418,0.560105759189507,0.4965086677577053,5
8950,0.15052086056899716,0.8167974555178629,0.8981602853703988,0.5418099050305134,0.5598033443218842,0.49648226817311586,5
8975,0.15134543032578215,0.8167313929379666,0.8984731984762562,0.5424411971281266,0.5594041493012246,0.49550746334493706,5
9000,0.15191073949815742,0.8166653303580704,0.8985029808150113,0.5399976712720823,0.5596375167562107,0.499420652744388,5
9025,0.152517332203082,0.8166653303580704,0.8987221788282516,0.538951556603227,0.5603273366743435,0.5021766525493954,5
9050,0.15286356342939558,0.8167093720780012,0.898473992671956,0.5391803581705643,0.5602492242110754,0.5010565151208409,5
9075,0.1524303615611781,0.8167754346578974,0.8985053634021118,0.5400794944729157,0.560833093683346,0.5015505759556191,5
9100,0.15182376885625354,0.8165772469182089,0.8986927935873462,0.5392071186060128,0.5611756982694797,0.5011520851396747,5
9125,0.15152267429219388,0.8163570383185548,0.8991919455848872,0.5390852622173801,0.5611971776324675,0.5001422101767444,5
9150,0.1504030648894565,0.8164674249370993,0.898724561415352,0.540733544310185,0.5607906483686159,0.4980063274950625,5
9175,0.14876328297659783,0.8165995500968918,0.8987853173864132,0.5417785625207377,0.5616000276860925,0.498006806838926,6
9200,0.14695066067413257,0.8168654943287816,0.8983183303147279,0.5419353467131981,0.5620998769102938,0.4979994472384927,6
9225,0.14824256001937575,0.8170648113433402,0.8957923908904164,0.5419356177128354,0.562924304439369,0.49901226069078114,6
9250,0.1542837169490919,0.8277406936457962,0.8959472590519448,0.552652042944783,0.5571780493402799,0.49645464458954497,6
9275,0.1485359483240262,0.8445507970422033,0.8890909675725923,0.5962830811126211,0.5583971976745633,0.49713846762707187,6
9300,0.14801357402550225,0.8685391361498954,0.8707104993862852,0.6451349023734709,0.5587822006430971,0.4796047758567472,6
9325,0.14175223825552308,0.8894270511019463,0.8593368227645076,0.6989523091723348,0.5510465850548436,0.44953043642352536,6
9350,0.13885358382346066,0.892572363933671,0.8585878962192711,0.6851310722452638,0.5367303570951706,0.4072554713395454,6
9375,0.11820961576040143,0.8824534964608525,0.8560929304272652,0.6468115802443632,0.5317778144485197,0.367955095780317,6
9400,0.10684948849703174,0.8590498394171134,0.8504819378057406,0.6057676697058912,0.5403807195827804,0.32072440183654694,6
9425,0.11315100690535883,0.8409393760078778,0.8475191907463494,0.6199204918213556,0.535456268068867,0.2554441417976289,6
9450,0.11219983431542274,0.8206801848397107,0.8474238872623318,0.6586725397375801,0.5330436120965395,0.19730420132522528,6
9475,0.10680215004637518,0.8034127251209453,0.8482033903420244,0.6798964930902568,0.5361851157747975,0.1601783168089941,6
9500,0.08750017201471895,0.7796544757680198,0.8447764358958985,0.6929390670709774,0.546003154395847,0.14789737096277786,6
9525,0.08611910023916926,0.7498277855823219,0.8498569057897263,0.663199532609729,0.5505547057935756,0.14716061275618514,2
9550,0.08616423690142323,0.7175618616773797,0.8685173279603345,0.6313308443314539,0.5396846221099745,0.1639027495130563,2
9575,0.09497524364164789,0.6833699594816176,0.8863986441491006,0.5775527636293817,0.543184131289535,0.1957545272049213,2
9600,0.10024412328914163,0.6657911022174441,0.8918793886758016,0.5738904215770037,0.5530776370970759,0.23798533022728913,2
9625,0.11713184033731404,0.6615235724836368,0.8946511316693079,0.6127287719754229,0.5611448523511958,0.2822738070783861,2
9650,0.13734425787345772,0.6743247500914713,0.9028130808796988,0.6530673483314708,0.5523737573906562,0.32795982099605714,2
9675,0.13704756688620334,0.6819888563155827,0.9107868057091553,0.6560744350654343,0.5535805411892968,0.393097631186299,2
9700,0.14222947589179313,0.691423100898451,0.9136502783060282,0.6123758463443271,0.5592100058965068,0.457566576097059,2
9725,0.1476711959288933,0.6997709830563599,0.9164835714662956,0.5885556790870888,0.5560013136103146,0.5015082822203213,2
9750,0.15941883795112585,0.7070310911957214,0.9200375972244448,0.5694956796427938,0.5507862556874216,0.5210673088298919,2
9775,0.16823039513845123,0.7105304316991973,0.9226870340801288,0.5604387004427325,0.5481211649344392,0.5212981697525394,2
9800,0.1704327339881819,0.7115919500770166,0.922436862434583,0.5483024458122208,0.5520652327869945,0.5147806560939983,2
9825,0.17155234339091927,0.7129388926782334,0.9230892942022522,0.5435117266838453,0.5567647803094152,0.5098126047526587,2
9850,0.17064850925163966,0.7132463377615965,0.9230603060591968,0.5420916449752743,0.558812715190688,0.5064185447572896,4
9875,0.17228608937609577,0.7153645750990374,0.922249829347199,0.5440703285798958,0.5601021439779122,0.5018958952748255,4
9900,0.16766453551897534,0.7165345038643787,0.9295401487766803,0.5515540427476696,0.5593780606145632,0.4991534731634377,4
9925,0.16156998522049534,0.6904637818963687,0.9215072563675633,0.513689618321619,0.5638037764804666,0.49835641126932073,4
9950,0.19607476172521132,0.6410266689553304,0.8802277435589736,0.3742901117776941,0.5529724546347939,0.4839153480074907,4
9975,0.24033566264198097,0.5778801590922437,0.813621726970608,0.2516872063625482,0.5495995077270761,0.4499778314610701,4
10000,0.2867146840020808,0.5097295499613788,0.7329945823940314,0.15168147799090462,0.5538853595610876,0.41967123320472466,8
10025,0.33106530779625754,0.4424826430452477,0.6524571819315713,0.11050942823312851,0.5668482681884222,0.4077097131910649,8
10050,0.3657407229021773,0.3753706844760842,0.5742289054672829,0.10665302240600079,0.5836388055578113,0.4095021404208418,8
10075,0.3972686814865375,0.3083044615391564,0.4979015364112917,0.10778496608642009,0.5918451182824346,0.4148562084901452,8
10100,0.4291803017000559,0.2424756415410536,0.4239098969094271,0.11807242069709585,0.5952267249161164,0.4193019065612331,8
10125,0.45819877195251846,0.1753012905353214,0.35312879352539894,0.12674722810980182,0.5953066506739491,0.42385075051370336,8
10150,0.4822934928895996,0.10795020801243102,0.2775797362555499,0.12315253628872044,0.5935381252854934,0.4293322214933842,8
10175,0.5168841391420181,0.06081540421264691,0.20878769600253505,0.1457184673855363,0.5931559268792196,0.43701029575995715,8
10200,0.5120941484720966,0.04360525519353505,0.1739574493769733,0.27389679474088763,0.596975875785471,0.4475508332183558,10
10225,0.490243600364396,0.041566631734430606,0.16775795774164098,0.4025038622120723,0.6003167081798058,0.4854172482659095,10
10250,0.4506890221582481,0.05866554717884539,0.19969097845307354,0.5401458457749163,0.6016510241851071,0.5322324135062736,10
10275,0.3983475578038262,0.09357453891707052,0.26676596760237475,0.6723516326824814,0.5748641821393776,0.5819610664205946,10
10300,0.3406067578390548,0.1441855330854951,0.34907720416110893,0.7694233102798822,0.5387750707119815,0.644647380552442,10
10325,0.28424758009693374,0.20770752684286367,0.4113234834535282,0.78724127477731,0.5196660819339239,0.7150618057616842,10
10350,0.23264261396319164,0.2702140201733662,0.4772155181074634,0.8046069657995966,0.5172874149237923,0.7559541023568813,10
10375,0.18142516258831237,0.3445214358955827,0.544353248717076,0.7932662197020849,0.5110107903641435,0.7793902471828041,10
10400,0.14286414139885123,0.43016648899408705,0.6076903558036447,0.8193368582806463,0.5116397916714834,0.8088682003581991,10
10425,0.13297590968263973,0.5120465396759433,0.6702189716674655,0.8237967834149718,0.5063003915181714,0.8457091651115209,10
10450,0.128613616409929,0.5903609049557098,0.7428723914145855,0.7926531188444925,0.49364947764252814,0.8938065194488701,10
10475,0.11522454113353582,0.6644673097510626,0.8082958506054351,0.7552603957641324,0.5028693566079461,0.9361543514886085,5
10500,0.11565554121335059,0.727454874176194,0.8632514133705227,0.7229226631825874,0.5069986023680151,0.9365122586006188,5
10525,0.12299575330061843,0.7769524033227784,0.8845910547355704,0.6512661663743401,0.5160384858928946,0.9079517472847427,5
10550,0.14640131446767635,0.8062508751880243,0.8801038490297509,0.5585039623884899,0.5390142933306714,0.8464230575010754,5
10575,0.17464585609661454,0.8246306706537597,0.8947464351533255,0.5280463380722344,0.5513681369355341,0.7631691973365827,5
10600,0.20159134256800085,0.837030391045302,0.9039666501341594,0.4989520630922043,0.549284661480795,0.7090387185769614,5
10625,0.2210243270096136,0.8428958447201883,0.9071152389873846,0.5044501379979992,0.5560453674239879,0.6816260240108692,5
10650,0.2391191745495279,0.8349672058577746,0.9120690346670394,0.4734079518894032,0.5611077914546788,0.6520920879312396,5
10675,0.23320407000586235,0.82781381419363,0.9174318411322687,0.4545375618580035,0.5652449915335712,0.6125405651711625,5
10700,0.21454611508197538,0.8218783454768025,0.9166249383009215,0.4757710624967527,0.5777660365414011,0.5615441213118099,5
10725,0.20979410526199907,0.8218998016993329,0.9125451549892764,0.5128643216330849,0.5765342136336589,0.5130722143681049,7
10750,0.21631470161638794,0.8248904038738645,0.9141021756594107,0.5436108346776369,0.5623564502691315,0.48825703291922967,7
10775,0.2132932974808789,0.8386012123895005,0.9117033075471226,0.573895620409126,0.5558462093709291,0.48651181102722085,7
10800,0.21838878629166544,0.8533320384314823,0.903417066709659,0.6050560433479807,0.557657355003708,0.4824225731185277,7
10825,0.20608133956806424,0.8650045058067314,0.8907385265525432,0.6364875656021594,0.5503256987786954,0.4515402293740649,7
10850,0.19183026413204127,0.8598250866153826,0.8936055730300669,0.6357742229132125,0.5536978577921476,0.39881991337542944,7
10875,0.18466069064597723,0.8515000722735916,0.8908330358408606,0.6136955055551189,0.5411561483372402,0.3443228948552436,7
10900,0.17041071610415562,0.8335211693867134,0.8911753341876231,0.6058195178548891,0.5435646571982341,0.3180863228514467,7
10925,0.16962908122122197,0.8011231203219787,0.8849690918888395,0.5727885962355845,0.542395716501609,0.27947254829464674,7
10950,0.15689228575910785,0.7643183583957068,0.876304416800257,0.5490339641664967,0.545933129937433,0.2296868646081107,7
10975,0.15330887513382743,0.7098579485141001,0.8715984101790473,0.5520658644994338,0.5614493180194164,0.17646631873065016,7
11000,0.17779331261817413,0.6453867992284794,0.827982770718481,0.4824054513414856,0.5629021950454071,0.126372421398949,7
11025,0.20979355481489842,0.5624644278415943,0.7627777153451714,0.37433497623488926,0.563783729264637,0.09365318292072841,7
11050,0.24386843213400086,0.4726760652449849,0.7008745285952147,0.26756590680029674,0.5565424732401775,0.08617158835951104,8
11075,0.27820091869621105,0.383198253237631,0.6481605831937866,0.225822863921675,0.5735914285511887,0.1162047510401121,8
11100,0.3280824349577945,0.3091559347911519,0.5834526943287676,0.2120470054166286,0.5753343132434048,0.16431553815316857,8
11125,0.36630438073325067,0.2417591166360257,0.5201457666788045,0.23893443690200192,0.586182709924013,0.22241180259634263,8
11150,0.41661579618044764,0.1796967106481586,0.45465797763624327,0.2459182937962514,0.5892588141116408,0.25089692761429433,8
11175,0.45639220456816054,0.13355792728373253,0.39266186998936964,0.26830536513245157,0.5859832332999877,0.28284167572059904,9
11200,0.49845517021200475,0.09353219110944486,0.3366464530624384,0.29422982276872917,0.5817519495437404,0.3322793735983442,9
11225,0.5450510677297636,0.07749564099900168,0.28798211153604997,0.3081808249129281,0.5618785440424496,0.38454854007075584,9
11250,0.5498905986387443,0.07904585307682226,0.2923450256147968,0.4181223998830777,0.55169711976846,0.443544149470475,9
11275,0.5227260342212964,0.10017571516977515,0.35082165501647755,0.5820201646157704,0.5592574132384807,0.5013386792139122,9
11300,0.4899914955922949,0.15481878526160775,0.42958005711061276,0.7784873074360681,0.5752701866144492,0.5233563318431573,9
11325,0.4740103649189054,0.21473274580926097,0.49843086784543844,0.8824852498323852,0.5667442320127434,0.5421679142222405,2
11350,0.4510776378113123,0.2723006378144466,0.5671581811488913,0.8922381810205311,0.5561645485203087,0.5652205438263147,2
11375,0.43112227907117556,0.3289140102357474,0.6362599577249628,0.8922197250107496,0.5562608351727856,0.5741539371794451,2
11400,0.40909448699706336,0.3845536654003731,0.7054852317324068,0.8878183108785733,0.5521036774761479,0.576841595926567,2
11425,0.3857725937893054,0.4405702160528681,0.7758942544309171,0.8887294054292877,0.5527618564707721,0.5770930775533669,2
11450,0.36387360633674704,0.49762711117936953,0.8477681710983448,0.8951045130348333,0.556251788610648,0.5741557118664928,3
11475,0.3346795434591747,0.5462686499744783,0.9055915745366563,0.8901747742074632,0.5622983210230614,0.5699759626888546,3
11500,0.30453320709746495,0.5913428094551926,0.942009815464658,0.8402832924300395,0.5752183079014077,0.5658431267836538,3
11525,0.26407094162233274,0.6181450192202583,0.9428500745154115,0.7596096782879201,0.5879447657619006,0.5613527627825207,3
11550,0.22779537679480164,0.6254327945939353,0.919578552109761,0.6110300746052656,0.5942201203042581,0.5867939762350453,3
11575,0.18210606565182574,0.6387376287937989,0.9029103698529666,0.5118717153753731,0.5998689509974182,0.6265753075907768,3
11600,0.14993133172419304,0.6597511755751397,0.8934705597610424,0.4842680692278853,0.5999446855559709,0.667166906206686,3
11625,0.11300734021208736,0.6894917585519986,0.871909337795654,0.46260925179056,0.6084627839700887,0.7184889404836292,3
11650,0.11318458417849901,0.7138945415369883,0.8689513559104639,0.45296700059221207,0.596666837770564,0.7745356175175746,3
11675,0.10437743056797887,0.7399587701744956,0.8632498249791227,0.4071522161976545,0.5876739463076482,0.8174737916234481,5
11700,0.09215750493338215,0.7645600232178913,0.8576432004339486,0.39467739268694707,0.5962937925908138,0.84897460488605,5
11725,0.08253018514288231,0.7884069206481134,0.8533140396724578,0.38919571170173944,0.5971428880369267,0.854380830026706,5
11750,0.08067517841366643,0.8115443511412451,0.849981594514649,0.38616199847467697,0.5903418515782332,0.851197173003795,5
11775,0.09371361888694092,0.8368533772094263,0.8544997738527743,0.386747127185799,0.5841968096275354,0.8450218127654554,5
11800,0.12558010243820547,0.8632258978864491,0.8673677296843746,0.42367189930625343,0.5641388420277871,0.8122636783196014,5
11825,0.1603446899744318,0.8718634390485183,0.8774619570332183,0.44345520924224635,0.5528728613863464,0.7658957988709714,6
11850,0.1860830459540762,0.8823826344627588,0.87911348699167,0.43915662234026315,0.552366602343633,0.7035070747865719,6
11875,0.20214949592806764,0.8923050081081936,0.883537157041478,0.5004584690875387,0.5531226153354293,0.6405408951826912,6
11900,0.17476805535296042,0.9041767924980012,0.8661216366308472,0.5549907199756388,0.5623698473160325,0.5595625717476043,6
11925,0.14621801558315747,0.9099575505576359,0.8588011377647601,0.6501892574248604,0.5701336848786706,0.4613481844912485,6
11950,0.12341464354421884,0.8916234907241362,0.8530066859365018,0.6630136424332354,0.5478506128522481,0.3439323343933558,6
11975,0.10531649332170052,0.8685069518160998,0.8489558907679117,0.6383137542844419,0.5405200588258925,0.27300454974244354,6
12000,0.08484646654244915,0.8437732912941942,0.839233347006736,0.64492278130105,0.5389509645513243,0.2322393885168629,6
12025,0.06238877528272345,0.821167749264842,0.8317567886855705,0.6782796594151317,0.5474239553076335,0.18753449338932973,2
12050,0.0484019144550161,0.8029460522809094,0.8313211723440408,0.7125872696705554,0.5458381701899201,0.15593764860008125,2
12075,0.040500246325077545,0.7882668905642309,0.8326915570246409,0.7355985061254017,0.5386636718492744,0.15548268215900085,2
12100,0.030225600744204512,0.7692685347884416,0.8336565048003173,0.7404620867769496,0.5335367329312624,0.16341527241050446,2
12125,0.03575429142320846,0.7397741337332472,0.8439087770934898,0.7074944793947451,0.5308412556279526,0.16616312336983374,4
12150,0.04331303100943749,0.7108260193964251,0.8654997813976335,0.6708277549978874,0.5171172070073274,0.17842981598200888,4
12175,0.07078474490905252,0.688437298142117,0.8858760633784053,0.6236898039719452,0.5217470870414799,0.22088475573589833,4
12200,0.07259901855281957,0.65893753303129,0.8885858591073003,0.5882459420763506,0.5387418824437777,0.3044094139701336,4
12225,0.12006242070121459,0.6162340038214662,0.8599551041170707,0.47711145785220516,0.5406324034461568,0.3657248626197701,4
12250,0.17477466071816836,0.5714263532100767,0.8104509006377788,0.37199559834290263,0.533870217001284,0.3728271200540227,4
12275,0.24468914876108122,0.5121747123736906,0.7479536555041136,0.2457897247154535,0.5295210122106645,0.39771011416778046,8
12300,0.301606479863269,0.4503985775653737,0.6827462175437035,0.17467114038267142,0.5413930200728594,0.4171509724822399,8
12325,0.35139717235324397,0.3852346181469954,0.619688270245736,0.15046912840660565,0.5596219466002158,0.4203851166762538,8
12350,0.3929817994666168,0.3198281469502802,0.5543589232453536,0.14750283802033956,0.570806960439415,0.41372342307211546,8
12375,0.4327510520420212,0.25479546573554185,0.488776227816625,0.14852141351915643,0.5785074507342124,0.41146647150757226,8
12400,0.47152784849494006,0.18799631630537394,0.4212310748128378,0.1469167654828946,0.5809643980262463,0.41151372812398623,8
12425,0.5096556678161838,0.12022203802494334,0.3485744782829171,0.13365831692902963,0.5809776414764312,0.41434759566747614,8
12450,0.5635923278683111,0.06927706081371016,0.27779019811608835,0.1403837118128804,0.5818057297272391,0.4118529742679185,8
12475,0.5834541106013359,0.0530191728287432,0.23541826912194913,0.26600862763167127,0.578569327455716,0.41263190135745387,8
12500,0.5805664651112867,0.037536249723327496,0.22099448391376464,0.38139711464505716,0.5941379033954108,0.4522778548586244,8
12525,0.5610938484784267,0.0391974130571276,0.22317693369776323,0.486711486061087,0.5966610892712462,0.4834789332886778,10
12550,0.5398454894988455,0.04653064174432308,0.2277264837660442,0.5359812510614153,0.5865063382047542,0.5149780209133714,10
12575,0.5042205531442915,0.064604968357718,0.24660689814559275,0.5786149700698033,0.5750280527691132,0.5386151378999279,10
12600,0.45762520607363333,0.08724382399573581,0.29343267662614547,0.6289756518974149,0.5549842629995724,0.5811092010310976,10
12625,0.3933258289045277,0.12997106797783003,0.355680544309965,0.6782328979604755,0.528626100855219,0.6418722582715437,10
12650,0.33623896009533744,0.19236548077748308,0.41378747561322826,0.7582546364923004,0.5176986047102228,0.6958258814406272,10
12675,0.27785303612859547,0.2579266626313911,0.4775006343638154,0.7773822020645562,0.5195627312547001,0.7355878985829224,10
12700,0.23743535686861655,0.3404924654780672,0.5445764177088168,0.807883133368827,0.508509230337053,0.7743479153786855,10
12725,0.19041011061234495,0.42317006653687533,0.6075398557184671,0.8199970320867308,0.5036285368209152,0.8292217427656449,10
12750,0.16708986874588885,0.5106770115773259,0.6705640496991785,0.8128262882357126,0.5124747505309515,0.8824756532055057,10
12775,0.15819464359926352,0.5884809446158433,0.7430594245019698,0.7908104147590265,0.4969822220320088,0.9167904156019426,10
12800,0.13349332995725788,0.6634729832280096,0.8096686178731359,0.7602112601034584,0.5021644714119129,0.9439072056273811,5
12825,0.1296049716382132,0.726902094127319,0.8609176693056467,0.7212473683443268,0.5095594521496972,0.9464930004592672,5
12850,0.13893174731175398,0.7851695719144822,0.8875224310648059,0.6651289814986368,0.517233970377562,0.9052290629929961,5
12875,0.17499263777002877,0.8297064788757843,0.8903565184207736,0.6097442498549374,0.5394686267280133,0.8477500240034226,5
12900,0.204832925543773,0.846357636834236,0.9000147323302375,0.5423161884218738,0.5499164232624485,0.7835263225607191,7
12925,0.25371813255316633,0.8753441465166387,0.9055594096108004,0.5216076670345201,0.537878858051025,0.7375858929859028,7
12950,0.27492080442339295,0.8922900452161658,0.8998273021450034,0.545544105595912,0.5464903190912471,0.6939595884362507,7
12975,0.3000966034661654,0.9133772771827754,0.8889547630100175,0.5715691165573801,0.5401526298816213,0.6108233815509042,7
13000,0.2964262221989811,0.9193576345756862,0.8888606508195502,0.6243219215282236,0.5247581458642392,0.5033703079495602,7
13025,0.2824745899857159,0.9091710106106667,0.8902957624497124,0.5979382596789545,0.5285391935577646,0.3947559157080282,7
13050,0.27651544967399777,0.8899730555016013,0.8981471811413466,0.5721316432757639,0.5161285177457674,0.30975827614212953,7
13075,0.2655907260672482,0.850775924763191,0.8923205643872323,0.5440341579156627,0.5119478839288333,0.2605427998499587,7
13100,0.2776857002099956,0.7827836964328466,0.8701402668735809,0.463703196337929,0.5221702986153257,0.20117380610520663,7
13125,0.309034763486642,0.7160748889922802,0.8146521958915461,0.3684957875442586,0.528860739749688,0.1416481048187246,7
13150,0.3425861656130192,0.6398635158392093,0.7439624250130347,0.29105368832998313,0.5450036706984084,0.09931433427548189,8
13175,0.36080816643318536,0.5504291809143512,0.6735212373886686,0.23546716163452527,0.5747555266846824,0.07759622028222725,8
13200,0.3866329426076331,0.4549921854178994,0.6081557544839296,0.18666391160751875,0.5899504558574892,0.07860731478512625,8
13225,0.39630870174299077,0.3532654112141511,0.5533840480234256,0.14244102269157832,0.6029759053699052,0.11030534794918916,8
13250,0.4303400937411413,0.2557703122670871,0.4971812009112601,0.0933660160972538,0.6168214561038938,0.1598336061450189,8
13275,0.4616076908468904,0.1804010958483338,0.42322172633525146,0.11039735275094532,0.6219795196897856,0.2250386515580008,8
13300,0.4936954541326193,0.11942392301055645,0.3466422001444642,0.1748590490392222,0.6387319935174278,0.2810827668891599,9
13325,0.5333403056632751,0.07505781887334508,0.28212094726897935,0.2125048203671117,0.6306050646955554,0.30903977090395457,9
13350,0.5501399511753422,0.07003056947073141,0.24887909204370776,0.3139089878556029,0.6172181395338076,0.3634063610736576,9
13375,0.5299726703014525,0.07919999909658014,0.27692015672657944,0.4768653901815399,0.6062240748565088,0.44936114554800416,9
13400,0.4910180794350212,0.11377585474814902,0.34807612048107606,0.6586763773416394,0.5901559312865919,0.5202678524459641,9
13425,0.4492231815291971,0.17054789028868775,0.4206040573075733,0.8150069755929628,0.5747082843169591,0.5708749843669803,2
13450,0.4207221315513526,0.22860334671900476,0.4939738415762243,0.8743090287983528,0.556571687904449,0.5963361608192865,2
13475,0.40245334272763056,0.28676834281171365,0.5670338895218187,0.889092239679306,0.5443615638934898,0.5996423314451681,2
13500,0.38543516971660235,0.3444900985179396,0.6403429178194086,0.8926123754507472,0.5379366829480465,0.598941851765764,2
13525,0.36993017578528165,0.40243403905484204,0.7136479751384976,0.8935120817868184,0.5338077714030542,0.5967743925857677,2
13550,0.35291255322135406,0.46017866257718587,0.7879489538655688,0.8959736805152259,0.5325878422854641,0.5931558257608243,2
13575,0.3333061779430343,0.520116055578392,0.859354692167761,0.8983481357280814,0.5342404476634315,0.5930263917701698,3
13600,0.30333433331223286,0.5650357867206309,0.9176748650165133,0.8918966404891401,0.5458398256211932,0.5925013920758908,3
13625,0.26843818891894944,0.6041527389432698,0.9364913466422,0.8149058273145456,0.5606024113265075,0.5864815465933885,3
13650,0.23250885531773188,0.6241982148422854,0.9273958203862889,0.6744614583069861,0.5828482375714767,0.5997605175763299,3
13675,0.21631360072218664,0.6414013058934597,0.9171451364845165,0.568096919687295,0.5825589964666398,0.6205479486719038,3
13700,0.20076567191701464,0.661948462153482,0.9124728831805631,0.5234911332033615,0.5757447563791322,0.6592964456084003,3
13725,0.16617557611169675,0.6856626697864767,0.8996700513963746,0.49726297842182526,0.5826436766117112,0.7074638354284543,3
13750,0.14760514227681434,0.7122138982116804,0.8886128617611049,0.4723016441516846,0.5995982794511147,0.7527907806613111,3
13775,0.15788474188159335,0.7361948970327172,0.886964905683304,0.45879585080242685,0.5831528497254543,0.7913993939109305,3
13800,0.1615578753842809,0.7585579272837325,0.885251825558091,0.43202603315964017,0.5730928749437312,0.8383446441578011,5
13825,0.1564172499112404,0.7790181293787632,0.8846283819334773,0.41494079249763355,0.5842729935987019,0.8684411627201079,5
13850,0.1604349632989396,0.7995655679575031,0.8819801363713436,0.40344992817575137,0.5815413670238286,0.8717645295284012,5
13875,0.18431831254936823,0.8232151246041892,0.889893105229739,0.4137535088223154,0.574908804829777,0.8558792277306624,5
13900,0.21878290641573622,0.8493888929040884,0.9020117374182525,0.45511606198029586,0.5567802395344484,0.8235316479595663,5
13925,0.2480644903823131,0.8627191357885274,0.9073713671006813,0.47200426410141944,0.551366928072491,0.7836859574442754,5
13950,0.264216810104007,0.8674601140115908,0.9116715397191169,0.46067500278164003,0.5595757822538885,0.7291245485514413,6
13975,0.2807148106049139,0.8825009260053935,0.907620744550527,0.49414294090799954,0.5637571797878276,0.6647706483974081,6
14000,0.28973994126729435,0.8996884895271048,0.8967462199262907,0.5689453074138897,0.5559377203032898,0.5985875007163682,6
14025,0.2680198491224498,0.9207305504989136,0.8716345460834041,0.6559698759295132,0.5541596918291238,0.5260590040859828,6
14050,0.22815977277543686,0.923653960818679,0.8659318238585123,0.684553167076198,0.5534785088818858,0.4183689406490586,6
14075,0.20734406521697255,0.910235352175661,0.8621319945311683,0.6598106042718763,0.531926387983089,0.3122451143350491,6
14100,0.17698470582730824,0.8921006093567199,0.8569637660124744,0.6456079774069783,0.5267268689279707,0.26812824481656217,6
14125,0.14286524229305253,0.8677664298200839,0.8404198753827528,0.6272854956882401,0.528440524733997,0.23207221790187244,6
14150,0.1064564692671623,0.8418580411146395,0.8270845353816169,0.6592665740574726,0.5477011845803978,0.17453055430867323,6
14175,0.08961003575153924,0.8182316346027889,0.8247769997748455,0.7051493170622244,0.5445604517301037,0.11486171871506816,2
14200,0.07215866087229358,0.7975503769519516,0.8227184445200695,0.7249872474423553,0.53106929697459,0.10730962270432053,2
14225,0.05605367960125617,0.7656158952213604,0.8263014584212739,0.7115536178700774,0.5323212197192589,0.12249941439229059,2
14250,0.05471664359375903,0.7279466733820878,0.8413816463756282,0.6595183389503979,0.5223867007441461,0.14024718336152417,2
14275,0.04849438956792663,0.6846491455906333,0.8679887907218882,0.5841691232108884,0.5261640820271715,0.1779703570856504,4
14300,0.06559512964405347,0.6607336447120575,0.8758711830458278,0.5563589068111368,0.5394380183157628,0.23609894268225687,4
14325,0.07237828926545588,0.6462933246303884,0.883536362845778,0.6005081959635133,0.5524021215842222,0.31014367529683673,4
14350,0.10308387988143378,0.5993152077188195,0.8716953020544651,0.5290291291591748,0.5525588855214563,0.35283302757697577,4
14375,0.14786715509672738,0.558802189438118,0.8318505037781874,0.4245593701644476,0.5439391188810323,0.36436349037556115,4
14400,0.20824294533234622,0.5090093549130232,0.7704448806343717,0.28987806075400696,0.5273712597729449,0.4107886034814834,8
14425,0.2495297805642634,0.45359019066676903,0.7069834819207305,0.18221638704280338,0.5316819871639993,0.4545858019217163,8
14450,0.2803228922692458,0.3942501840718038,0.6410616649280398,0.15760999376887733,0.5568490295303666,0.47085508490812933,8
14475,0.3171995453306949,0.3342275308179111,0.5788141943420704,0.1564385090609196,0.5681278938074629,0.4605894478111415,8
14500,0.3480741232065746,0.2734945636707757,0.5130754394582632,0.15506716056298647,0.570819016359434,0.4521548039446255,8
14525,0.37580124456089464,0.21289598023317266,0.44686850620922053,0.15773145767527663,0.5777958542150023,0.4396501650386495,8
14550,0.3980002256833113,0.1499710905633274,0.3775487229134593,0.158711582374981,0.5841409857543981,0.4370671972208044,10
14575,0.4225705329153606,0.0971026759297319,0.3009084407516109,0.14203552001590858,0.586249638270845,0.4400494874604593,10
14600,0.4261957775202909,0.08886320415934525,0.26314959748176425,0.25474640913020824,0.5872714375800588,0.4509741866975456,10
14625,0.3925117176426553,0.09816786445087874,0.28486370211943035,0.43291567824480953,0.5859571190138736,0.5056835991393526,10
14650,0.3316218098150223,0.1327637647313906,0.3513184244269183,0.6166412716125326,0.5789302086288692,0.5762254829966309,10
14675,0.2795401564921108,0.19041945785772038,0.4151570660981284,0.763306948144126,0.5584393884169585,0.6415709895386322,10
14700,0.22927167591876502,0.24949239094592585,0.4711430977841542,0.7828657146335195,0.5438183662627555,0.6916406253823254,10
14725,0.1744251268092509,0.31385569448145956,0.5274710307190925,0.7799341215456423,0.5371691701132312,0.7243839469880468,10
14750,0.12756996870708237,0.3861882907747277,0.5863848648537032,0.7654899218661322,0.5338462815130312,0.7638456473966384,10
14775,0.09323913348617423,0.4682007489350937,0.6480394683495143,0.7760867552696347,0.5222288033200351,0.8131956766260239,10
14800,0.07553345204642482,0.5577660797448742,0.7048038118216824,0.7779274875991189,0.5215933950385669,0.8696419190979702,10
14825,0.08153167410228966,0.6333546578071289,0.781319405258608,0.7706794714722108,0.5068169884731908,0.9213260519588459,10
14850,0.07120858917655867,0.6975818837208252,0.8316654561800538,0.7001433432334381,0.5061673582735688,0.9549907906338929,10
14875,0.08524609113752644,0.7591519258653633,0.8607322246096626,0.6343302589722373,0.5257565159854865,0.9483436601651771,5
14900,0.1274785944883732,0.8006313211160849,0.8693929287197446,0.5693153714358408,0.5346993406077335,0.8925745745067967,5
14925,0.14652021104141844,0.8242145328641572,0.8754037988762926,0.49900202358855605,0.5462753192435567,0.8390944828780992,5
14950,0.18041949573541116,0.8456049751333673,0.8835026095285217,0.47107857606448966,0.5545932797144548,0.7955587007449237,7
14975,0.23017000558703812,0.8627213943382676,0.8970841501967024,0.474314641917277,0.5479660891388899,0.760149478144467,7
15000,0.267744625572121,0.8865081578816609,0.9018814893234287,0.5031468477882879,0.5352266338673963,0.719941488389673,7
15025,0.2914964179654925,0.9045810729014685,0.8929400370333455,0.5413380915470416,0.5507449609258701,0.6664412264171041,7
15050,0.30807753597859866,0.9197088390602627,0.8850576447094057,0.609018961377381,0.5327282723496986,0.5714064540886622,7
15075,0.28579488689688204,0.9219230647616552,0.8878007966577067,0.6087561789474774,0.5328881252875556,0.46518857159062466,7
15100,0.293353626483111,0.9132409172422203,0.8898871487619877,0.6119754739721357,0.5200941616703539,0.36848435829072085,7
15125,0.2936134375146213,0.897874309448417,0.8983937789062415,0.5851078348051002,0.5035878621349952,0.31874244427268084,7
15150,0.2816522220173336,0.8658760236876696,0.8939375468327276,0.5471178690183371,0.5097254845109921,0.29568250411731295,7
15175,0.2845905086406434,0.8050385986150572,0.881446039762996,0.4808193683378477,0.5207298302129243,0.24509356942705599,7
15200,0.3137851219653164,0.7403672853587254,0.836363917942112,0.3741836338397434,0.5262413255312403,0.1914729564726677,7
15225,0.3267817284589408,0.6646671914030563,0.7680420415435828,0.30040969538270196,0.5470332393945773,0.14543112671993458,8
15250,0.3347246801214287,0.5736843383126827,0.7062957084444048,0.23259067492117028,0.583991169224182,0.1222004152968347,8
15275,0.35268907169848707,0.47743228867879356,0.6495964890196488,0.18485407323668634,0.5984267972977154,0.11568358609674052,8
15300,0.3649535835482371,0.3717643451786738,0.6066674317418578,0.11931259291082395,0.6249010245161222,0.14527530652172854,8
15325,0.3919436562347767,0.2835504740695904,0.5442952724309655,0.09618861126204721,0.6410404113628387,0.1888781009270098,8
15350,0.4014003374240728,0.21263398846332787,0.47157752283213356,0.1408413803612606,0.6612174021956164,0.24242561728648632,9
15375,0.4222567780679857,0.158502762206332,0.41101374713047156,0.19823031629956292,0.6684724577472607,0.2725867268770122,9
15400,0.44147453769324135,0.12193458336532946,0.38961136430511245,0.3006661980968724,0.656962246949748,0.305270638827252,9
15425,0.44847292213100093,0.13245519037315756,0.3953093213558032,0.4430343686100933,0.6320426104937763,0.37763453323395235,9
15450,0.43370332552615865,0.17890367737068666,0.44316358326804384,0.646644613318405,0.6240456856479397,0.4543808032726299,9
15475,0.41815924985069125,0.2288738080503747,0.5097414059090541,0.7981976094467857,0.6052900503817565,0.5182379002990849,2
15500,0.4038657899879177,0.28794787041345005,0.5799316276921744,0.8712374628403429,0.578424103182872,0.5626116223251484,2
15525,0.39078056151108737,0.34575827419697264,0.6490623924113013,0.8853909390928627,0.5561127423390498,0.5786186707756766,2
15550,0.3788617304405503,0.40407769862815685,0.7179425883870322,0.8877464928597514,0.5419856104253418,0.5848951146020325,2
15575,0.3659482414591252,0.46279801563819845,0.7870741473018591,0.8872658204915846,0.5362483890886639,0.5868950040854032,2
15600,0.3532505277411578,0.5205214652567294,0.8578572361751375,0.8896583579216184,0.5333705754170877,0.5852531889270185,2
15625,0.3389130321103317,0.5685647706894449,0.9211629725315503,0.890842093682145,0.5328744494910589,0.5807942944078953,2
15650,0.33239188530884217,0.615365873765138,0.9540939001402151,0.833354532565497,0.5376693137311384,0.5768702317060169,3
15675,0.32375316851112323,0.64721537756176,0.9630051729936927,0.7615633053283761,0.5559401366071842,0.5507049882986031,3
15700,0.29037020319754725,0.6512691920264161,0.9458715920566133,0.6578246099069244,0.5726046976477586,0.5355290797466215,3
15725,0.2482208173588998,0.6475482313296985,0.9288924821832122,0.5298503483933957,0.5934272924551289,0.5532045458252008,3
15750,0.2076264445796098,0.662203395955389,0.9146239622344061,0.5016327759296503,0.6013473791215639,0.5775083119619357,3
15775,0.1752838242862766,0.6834594545150667,0.9050292839809535,0.5071023709540221,0.6035833519380911,0.6307131955573474,3
15800,0.12933139942918637,0.7103847552409646,0.8859963840269772,0.48781236757618296,0.6117066043941207,0.692365839205082,3
15825,0.14172801858309417,0.7362677352618336,0.8769000635753657,0.46201703347973133,0.6086435331722891,0.7528189816870244,3
15850,0.13710921696147702,0.7563490656379726,0.87391110805787,0.4179965719480364,0.5809619163015285,0.8159541712486272,3
15875,0.12596816764416896,0.7786892280728699,0.8685220931345354,0.38905024408033995,0.6053965441048924,0.8711449876177119,5
15900,0.1197492163009405,0.7997013632606231,0.8657491588474789,0.38964515992778825,0.6041449285536555,0.8685443732571739,5
15925,0.11680982878342938,0.8191635686892732,0.860673454127852,0.3826341937249941,0.601630025522953,0.8685435728643975,5
15950,0.13442688823997295,0.8404631043314467,0.8664984824905658,0.37934230506186206,0.5936151824824345,0.8639674107707251,5
15975,0.1631018795016252,0.8652182210758826,0.8755654177012719,0.4170506866507822,0.5725690632096324,0.833958221971814,5
16000,0.19462708585048208,0.8758020674764321,0.8848507567295179,0.43812799805029773,0.5666469313375021,0.7949649965832257,6
16025,0.22627944547959086,0.8925034781665997,0.8846962856658396,0.4490273480374206,0.5554120198984602,0.7379229007054683,6
16050,0.25081232230879535,0.9112649685384021,0.8734179125280798,0.5162996251732374,0.5668529457773029,0.6801995323454383,6
16075,0.2227863081788183,0.9320204760119433,0.8500812660750173,0.6292332230354427,0.5491385497602581,0.5890260821809191,6
16100,0.17605995469820365,0.9415679304005311,0.8383668794978777,0.6897938234759448,0.5726125381912368,0.475625740217007,6
16125,0.16712014333642505,0.9166784299465627,0.8394882838264823,0.6567940169759158,0.530598609793563,0.3451401204047129,6
16150,0.14284982977423416,0.8839495033449121,0.8254679500339717,0.6001620795876719,0.5259087772634331,0.2749564201182314,6
16175,0.12605348694477092,0.853259200202366,0.8190166983616934,0.6155843231880622,0.5375518449537633,0.2075892774880045,6
16200,0.11301339513019458,0.8278838292355712,0.8162123933444811,0.6699896901770169,0.5377945647421272,0.14259880199483296,2
16225,0.10791955766070992,0.8108797728802382,0.8185171492663021,0.7114889268302226,0.5347536199805594,0.13019877821491835,2
16250,0.10563355085167926,0.7948296714713547,0.823218787811161,0.7337934522998898,0.5267400882008947,0.14100706377838432,2
16275,0.09937056374039817,0.7658869211901653,0.826767651297259,0.7259974998258749,0.5251267523833335,0.1434618884897466,2
16300,0.11884813439716412,0.7281510721335616,0.8512217311004255,0.6712068928352805,0.5152172412291023,0.13709785181824663,2
16325,0.13107081226726408,0.6824402839448732,0.8877650578512003,0.597641786075752,0.5143005930939506,0.15662331989836528,2
16350,0.15534167627655565,0.6507279870449586,0.9068916728977937,0.5470394286405624,0.5240792739787012,0.2054068115008237,2
16375,0.1766770058980407,0.6533879940012919,0.9072335741467062,0.5998246289703472,0.5494237105967766,0.2777694016463143,4
16400,0.20176858653441263,0.6674070945564434,0.9235888432976433,0.6716093615609878,0.5524998588723508,0.34392452889165437,4
16425,0.2212026718702266,0.6848360405816217,0.9373582112489084,0.6765534291048129,0.5424887335351022,0.4049991819383857,4
16450,0.22599651566985288,0.6786109128606339,0.9511279762980236,0.6277175594433032,0.5404945816817117,0.4784766389594395,4
16475,0.2497048227422725,0.6335599035147551,0.9226215129348668,0.4479761684787925,0.5385354669458849,0.5183407072955032,4
16500,0.2857211269853939,0.5833020900619295,0.8598149285759951,0.29354467027193787,0.5430395313588978,0.484504379123897,4
16525,0.3191888611524711,0.5193117295522198,0.7835820688083212,0.18510978475651338,0.5637868922192345,0.4465650280058882,8
16550,0.3459642594697543,0.45583151896504215,0.7143274095599718,0.15646319183248208,0.5848376265044776,0.4295030083676606,8
16575,0.372693970677683,0.3921737299045537,0.6457251820792917,0.15502230856554472,0.5924099417619135,0.4319618194363614,8
16600,0.3964441117297526,0.3287144109024713,0.5765014964632479,0.15332340249451745,0.5957364128632966,0.43530510019529695,8
16625,0.4179500799524414,0.26476752747525756,0.5065280901062673,0.15171089858371228,0.5974819499432483,0.43721347513186887,8
16650,0.4358687844201453,0.20199650150645268,0.43689896758529956,0.15036746616335908,0.5991934753059353,0.4374921701130729,8
16675,0.4582741832053086,0.13718769903469577,0.3692021232027847,0.15682220716807121,0.5999047390322605,0.4421696588109527,8
16700,0.48366685840574014,0.07964521571408564,0.2901327934920427,0.14353267775925294,0.5953978700569876,0.44642087704387345,10
16725,0.4880275003371489,0.07067566774023055,0.24620543221916938,0.24817687018718662,0.5959755814386976,0.43837589960720225,10
16750,0.460735782639449,0.07043287364317626,0.25782689789939206,0.4244117252011347,0.6052511747684831,0.4776847138479332,10
16775,0.39492047415513254,0.0969905953988824,0.3126907310611129,0.5853948888347028,0.5786718191310833,0.5597470188072349,10
16800,0.3281127095483306,0.14474424182743773,0.37229154447634905,0.6869182182901455,0.5460167292167248,0.6565843559307883,10
16825,0.2762022452737236,0.2047917391284708,0.4296777431817305,0.7368145531415338,0.5218708575507889,0.7096433250246691,10
16850,0.22511469941459958,0.27028572912761256,0.49233104777047426,0.7534429071046884,0.5105914030640892,0.7470013167575928,10
16875,0.18184460327901342,0.3564632353273316,0.5543597174410537,0.7833558377246697,0.5025130548924385,0.7836989420892082,10
16900,0.16029845241797652,0.44529877225236125,0.6126195314165949,0.8178551817809498,0.4987197649717663,0.8347706429351174,10
16925,0.14920639289262702,0.5347539987623148,0.6738659183225316,0.8040209680206722,0.4971795483020094,0.8903938720591319,10
16950,0.1440272361225406,0.6173423871063911,0.740909536741677,0.7740997298600857,0.49866984888342997,0.9401578693374845,5
16975,0.13923394277001502,0.6941059756709023,0.8058656117629912,0.746282439435319,0.49931840248384773,0.9720115554867778,5
17000,0.13893339865305598,0.7601933996142397,0.8563359543115097,0.703564909895424,0.5053454352242805,0.9697030711126574,5
17025,0.1651891749073185,0.8201211937790506,0.8802301261460739,0.6499373959688461,0.5191664346609604,0.9281584008963865,5
17050,0.2062574826402746,0.8589648614831444,0.885091000928812,0.5962683069599809,0.5392106709987312,0.8509747240085739,5
17075,0.2299690923952981,0.8810193173759265,0.8936290018032211,0.5476756267660923,0.5540418347933831,0.7873851454480331,5
17100,0.25600799249190165,0.898289600281867,0.8978966123979507,0.5205851978627536,0.5631465787981951,0.7438672662507797,5
17125,0.27751341026748977,0.8978909662527498,0.9004543196502678,0.5003755058192656,0.5694355565159522,0.7060635047904344,5
17150,0.2855455343602842,0.8887873168880799,0.905875499499458,0.4586978236922461,0.5712193989102594,0.6553460390595911,7
17175,0.3010477760561016,0.886729495756185,0.9167190504913887,0.46829380248126024,0.5642316115999044,0.5938965279641352,7
17200,0.29961936582989535,0.8981148449957312,0.9102090283372996,0.5221485667358723,0.5576943775010461,0.5376176210906485,7
17225,0.2950390955053242,0.9144365370108546,0.8977469065084736,0.6018335835459486,0.5568998174222858,0.4756673093627439,7
17250,0.29236172080772616,0.9366084374901188,0.8779023385489487,0.675548032910196,0.5326275242814968,0.4081003628332062,7
17275,0.2858405740062366,0.9305843206959947,0.8789931663430981,0.6709878379100708,0.5236316590154951,0.34526062522246986,7
17300,0.2797966648410171,0.9081538162714957,0.8849730628673402,0.5982257871791878,0.503871519714765,0.29127268103276577,7
17325,0.2726689253346031,0.8887785650078373,0.888989707620824,0.5642266087753296,0.5050929961770503,0.2664915017851044,7
17350,0.2606658758576655,0.8553410184252487,0.8864657536857629,0.5540542386772925,0.5078731237594034,0.24904038647065546,7
17375,0.2662380518576214,0.7935516146372091,0.8761829048581347,0.49466956796178746,0.5138104233072447,0.20694404943475486,7
17400,0.2980236196850892,0.7288156503945686,0.8309145441455666,0.3922125263882003,0.5129623333507451,0.15205852828703453,7
17425,0.31650488108966507,0.6473777108243255,0.7667042188866885,0.31405022850564823,0.5302349496576025,0.10818969803755622,7
17450,0.3438846703234703,0.5521188584386194,0.7024946878235105,0.22907251090571074,0.5605117437538931,0.07783280434765333,8
17475,0.3710074007612684,0.4521658927369557,0.6503422387820849,0.17494753509320707,0.5725828414039398,0.0857100850058375,8
17500,0.401107499566523,0.3462528965900416,0.6040152152012234,0.11504597150628826,0.5935893142355045,0.12486020298518193,8
17525,0.4465788336576385,0.2637074206910259,0.5421747699115782,0.08866178011749797,0.6051361180284269,0.19046375705015886,8
17550,0.467608114691158,0.20319663837456692,0.4712658010198266,0.1614413959857914,0.6224905800520676,0.260733819494284,8
17575,0.4941220506356288,0.1424862567248318,0.4028521950179309,0.2094034755983828,0.6274571227549491,0.3057424737133121,8
17600,0.5228845629862857,0.09085580966749622,0.3397970274049139,0.21613766395322306,0.6310724324808853,0.33183517567289317,8
17625,0.5408935407784974,0.06434212963172074,0.2811655298417049,0.27125058919059075,0.6212208201776501,0.3673412056682033,9
17650,0.5347169738620194,0.05718845564885876,0.25723919308128473,0.3637941369633413,0.6208674595548167,0.42579148896432817,9
17675,0.5170982630641738,0.06465437413328146,0.27627526981806166,0.4823660349114816,0.612936623962641,0.4736688378454064,9
17700,0.48795153863725815,0.0944680776579742,0.3335387652877708,0.632770746392808,0.5808051580530617,0.5307286649870978,9
17725,0.4606146842773043,0.1471182599229382,0.40893335149394167,0.764764539940425,0.5577913809381978,0.5697820536043108,9
17750,0.4402305272457554,0.21298688686020928,0.4807449237989081,0.8623959221220556,0.5413499731709913,0.5862603907118453,2
17775,0.431680982878343,0.27768671430700914,0.5530238802734098,0.9088573147661411,0.5348045401363173,0.5983961444165855,2
17800,0.42731868960563224,0.3411019915891607,0.6256471205839244,0.9148097563856549,0.5267918630939337,0.5992780836171225,2
17825,0.42632458214184477,0.4038718882830956,0.69854912358519,0.9145973985779186,0.5245781219798645,0.5936288311377137,2
17850,0.42774693744994374,0.4664221410148116,0.7698615438926152,0.9126740861175794,0.5188858504377036,0.5888330626694056,2
17875,0.4296894652681641,0.5283304009829208,0.8407697185886666,0.9080351828549805,0.5189977428009707,0.5838864903921598,2
17900,0.4308547617802561,0.5896381690388967,0.913578800693015,0.9098981215800311,0.5216414068120624,0.5804178489506555,2
17925,0.42973019835361276,0.6395619994489138,0.9649235527073932,0.8918546604648658,0.5226329248131432,0.5832417349942546,2
17950,0.4360328176561412,0.6786541076244123,0.9874810931786133,0.8107292058240376,0.5316994545238758,0.5674246226479698,2
17975,0.4468303879826389,0.6947776118998469,0.9877610471629145,0.710493604346261,0.5436656086398653,0.5408907013834098,3
18000,0.44345944993821235,0.69564630659361,0.9833977359863175,0.6081513949753053,0.5517985988432549,0.5251542860191548,3
18025,0.4336548861813008,0.6949139718404018,0.9818693063613882,0.5539549562469528,0.5650702468252152,0.5094550588206757,3
18050,0.38801071170057877,0.6949786228267105,0.9685975020162642,0.5392392616549468,0.5807746136394427,0.5123271601684156,3
18075,0.3281116086541293,0.6972349140170113,0.9490293141603902,0.5118412761977218,0.6070243734792441,0.5490497671185872,3
18100,0.266143925403409,0.7097221532109802,0.9242909122965718,0.5014432568499675,0.6301699678647084,0.5851070581633726,3
18125,0.22144707038291858,0.7329270578775956,0.9109571606868364,0.506183520206792,0.6274181120334532,0.6312824241984287,3
18150,0.18314090620106185,0.7589240946603366,0.8901107148515787,0.49358581549273156,0.6314864837172484,0.6906089213228058,3
18175,0.1883233656537523,0.7796708502536351,0.8855591792940473,0.46509606905992784,0.6171037370019864,0.7596491858394643,3
18200,0.17083621171296387,0.794262493167887,0.8787040791082452,0.4111238840889074,0.6073224250623773,0.8187283236942671,3
18225,0.14527234746422785,0.8075026763814419,0.871912514578455,0.3796263157966872,0.6277856803525224,0.8472903755990252,3
18250,0.122040177133877,0.8209195911121551,0.8643108704345163,0.3724600699166605,0.6318530749905403,0.8444742214834183,5
18275,0.10666949229511673,0.8345132373600264,0.8570535101265906,0.3704397956550597,0.626828747212008,0.8446325275811951,5
18300,0.1115519580779489,0.8472014874808589,0.8586740664527367,0.37117900790708414,0.6221312405348424,0.8387810365815506,5
18325,0.13893394910015663,0.8602889362682434,0.8663722053742428,0.39568499425792264,0.595263549728792,0.8015619743067898,5
18350,0.17815220412780286,0.8646970607233684,0.8845374465258108,0.4168070455170991,0.5710091662495342,0.7617427747858483,5
18375,0.19646282693117484,0.858139079234442,0.8888368249485461,0.4128882443596877,0.5648821448913293,0.7198323429067258,6
18400,0.23062467489218122,0.8514509488167458,0.9030747683628967,0.4233157497139552,0.562636681788818,0.6610684996092289,6
18425,0.20000660536520787,0.8605780306349686,0.8957225016688036,0.48745526481274676,0.5655874211901116,0.5944070314081817,6
18450,0.1684808485692504,0.8829475542164864,0.8665314416121219,0.5884079655951321,0.5977563049663537,0.5181468338830608,6
18475,0.13855359015360227,0.8984530628193025,0.8471514781371822,0.697551184978621,0.5728627230644396,0.4353725449916331,6
18500,0.1315541048216414,0.8977004011184339,0.8463104248907285,0.69755500389305,0.5456715262861445,0.37471698785845403,6
18525,0.11237872962313633,0.8846361024658845,0.8440044776753572,0.6678017543582038,0.5321472572164014,0.33716839116938463,6
18550,0.09842819830407251,0.8582604762829692,0.8326022100083746,0.6234006878531483,0.5304264477855437,0.3027020513253095,6
18575,0.06305811895712292,0.8254409253729995,0.8154674377777451,0.616747254275284,0.5539929625938393,0.2500383112795954,6
18600,0.0461236139053946,0.7997307244072436,0.807397218170721,0.6672829676042673,0.5646023684730236,0.17226168380322837,6
18625,0.04517134042125722,0.7848076393186407,0.8113860660746995,0.7356437350303849,0.5546167359240659,0.14175882210364246,2
18650,0.03580052897966372,0.768821059621196,0.8116330609374447,0.7638280274926952,0.5425724508563147,0.1527631994383606,2
18675,0.037441411786723756,0.7396772984131429,0.8211657919262859,0.7402766015424428,0.5457362801016906,0.16699183087696173,2
18700,0.05445848390355063,0.7069466778991873,0.846521680946967,0.6945874426119331,0.529535575454854,0.17448833637659092,2
18725,0.08334759908735866,0.675743683965652,0.8736561712381232,0.6222601905519933,0.5304654129969015,0.21369833889626746,2
18750,0.09513707508924124,0.6608211635144841,0.8773928620073057,0.6158797283674072,0.5425876114210666,0.27317071262056764,2
18775,0.12160862660696159,0.6580335484978385,0.8846510165109314,0.6419035463074836,0.5621469457706157,0.3226941149515857,4
18800,0.13788809960890738,0.6739964134230129,0.8960211192520582,0.6909607292245137,0.5597371740032899,0.3555895134143655,4
18825,0.15714769321381292,0.6805295508647986,0.9215358474127685,0.7168995436116913,0.5500989160718146,0.400494352900109,4
18850,0.1939858149782161,0.6495425307501547,0.9082009045094829,0.5503803526633533,0.535262996467732,0.4720856141136759,4
18875,0.23107769285602234,0.601988201336158,0.8514365610373149,0.35141245633946655,0.5288728852677913,0.48560991328591474,4
18900,0.26342746896166414,0.5378453887189958,0.7730224427791925,0.19844503523057586,0.5456666183021897,0.46307812980580537,8
18925,0.29326885762960975,0.4713762698695913,0.7004956972462455,0.13928863654288684,0.5584750939646754,0.43682269617835967,8
18950,0.3251386438634781,0.40572531066351675,0.6294652164123717,0.13449546907296073,0.5698174591063285,0.4276879248944415,8
18975,0.35118194753688686,0.3405805489179287,0.5597733524310925,0.13933972776186324,0.5727094790519486,0.42637106474434017,8
19000,0.37933896807682044,0.27557242943161336,0.49036183953196455,0.14390022491100932,0.5791821939969104,0.42622510342317627,8
19025,0.4059833599841472,0.21009791942397946,0.42048254536545104,0.14686051592599456,0.5821315880047466,0.4242566321431697,8
19050,0.42917259544064673,0.14256812915290834,0.3497284446352279,0.14333724964150177,0.5844335732765766,0.42317318792998326,8
19075,0.4688185478655038,0.08121801328930661,0.2714676061472335,0.1304365611030669,0.5846857904618837,0.4296253592166683,10
19100,0.47490869458717844,0.07014321463901592,0.22308321860514613,0.21673662922053905,0.5724688555743206,0.4388792039752722,10
19125,0.4429541394998088,0.07514787854422919,0.23629228148995876,0.41052532064863984,0.5840117170515308,0.4947923625629455,10
19150,0.38219413718793094,0.10770656695922416,0.30813443032938076,0.6068107940339212,0.572938006788187,0.5693484681290452,10
19175,0.33352250365359265,0.17001007313184058,0.37309209374209523,0.7591285947478901,0.5503019879967495,0.6485277003399005,10
19200,0.27746387002843065,0.23605881941087983,0.43443497542559945,0.8137353798810617,0.5366888191388186,0.7095663914493437,10
19225,0.2251647901007594,0.30325575591401244,0.4960899760192608,0.8104077379554366,0.5310236488838916,0.7441346041266802,10
19250,0.16842084983527872,0.37895669682583416,0.5547862005320316,0.7961642150648138,0.529244963357107,0.7767172875709915,10
19275,0.13162731428602886,0.464159921131443,0.617936274531216,0.8078725955323561,0.5223038381602146,0.8219849346236838,10
19300,0.10623849221530184,0.5543028760372389,0.6748900336778686,0.8050292642229021,0.519926995822182,0.8732581716953313,10
19325,0.1013163942412225,0.6356075611728197,0.7501615195505169,0.7918526419848089,0.508174038214661,0.9211012954245614,10
19350,0.09544202278300543,0.7111089027513653,0.8201357201031978,0.758987322948461,0.5076324121058827,0.9546408896791547,5
19375,0.09526863194629841,0.7725888852250192,0.8624155223961203,0.7061868905700972,0.5187382383048016,0.9527928630202339,5
19400,0.1330089365086792,0.8231484973868579,0.87571830037355,0.6199819277506246,0.5313480337706785,0.9057480742332419,5
19425,0.16263730214867028,0.8478849810959387,0.8795491033331995,0.5389910789411353,0.5423122509083479,0.8368167656914913,5
19450,0.19982165513938702,0.8612804396041214,0.8902961595475626,0.47651260160773184,0.5517267895341126,0.7765322006430408,5
19475,0.23596566310986103,0.8736824185454036,0.8989870430942499,0.4652043069380517,0.5508075146106778,0.7377749640416856,5
19500,0.2759088569690732,0.8799527172611922,0.9112919141744474,0.4723670796618074,0.5495927139167739,0.7007054213802101,5
19525,0.29840562997294556,0.8734636215393371,0.9173039756245455,0.4645148340217555,0.548458067953585,0.6546150508154102,5
19550,0.3246641584627114,0.8641615021162612,0.9311063026973664,0.4625711249450369,0.552535469133216,0.6035740279767597,7
19575,0.3367541785815529,0.8672636201842073,0.9327240793385619,0.4783372733150333,0.5437148619868156,0.5462126757089275,7
19600,0.3307526538430841,0.8806850520144005,0.9257137138933815,0.561690644008522,0.5524676106729368,0.5054670694834681,7
19625,0.3473381754329955,0.9025475311792791,0.9103555574439763,0.6301740652474924,0.5418792048780985,0.44933912694337563,7
19650,0.36145989580036386,0.9173878968836531,0.9058071986692458,0.6750422790583566,0.5169311686737654,0.397600620881844,7
19675,0.3773496522550442,0.9142665811429165,0.9111664312538246,0.6426056534137669,0.5042639493689588,0.36545783018623834,7
19700,0.36823865184496113,0.8923448150473617,0.916621364420271,0.5624118145375668,0.5057561329323429,0.3432203103301156,7
19725,0.3583069348077977,0.858774578667546,0.9131654218310896,0.5079096072299464,0.519061408639778,0.3100580444172732,7
19750,0.3445782336702988,0.808854700719574,0.9050674053745607,0.47577704317840336,0.5372268926124422,0.2565896064182226,7
19775,0.3539947322212467,0.7439835058112485,0.863756521835815,0.4061363288906421,0.550828597182149,0.19556271385633842,7
19800,0.3640095667706095,0.6741734272588885,0.7974280766446502,0.313948335756963,0.561330427050226,0.1562263986548853,7
19825,0.3535576772233247,0.5904766556298869,0.7232482127618513,0.24232952035805347,0.5883737557010923,0.13880830678836634,8
19850,0.3646156090284334,0.4952189325190508,0.6550200514559393,0.18557184848291913,0.6103894002007421,0.13189223319918433,8
19875,0.3646568925609827,0.39513101847041976,0.5981298279652983,0.12949669698166213,0.6106283668249053,0.1478473720535638,8
19900,0.3624132701787027,0.2982781946056798,0.534076356357199,0.07848510517464766,0.6347954959919058,0.1994223817265558,8
19925,0.3604300092750337,0.2153789733536301,0.4580900943544201,0.09821900284344029,0.654586671784623,0.239599477211976,8
19950,0.3745946645162534,0.1550683550078823,0.38210105266669075,0.17535266397627366,0.6587868450949087,0.2628521024529062,8
19975,0.39070349891699535,0.10693724845402275,0.3144304167422807,0.24287789902640733,0.645449351054088,0.29079295592376325,8
20000,0.41631415116928727,0.07437658380800509,0.24850582006463956,0.28406710586466893,0.6312437582401171,0.3454551451917513,8
20025,0.4207210306571513,0.06082302681801956,0.2099349116913946,0.34090602467704006,0.6154578742354156,0.41340709179436097,9
20050,0.4146798737274352,0.053534969125624984,0.20301865843668135,0.427186886084586,0.6050307606365516,0.4611938469147595,9
20075,0.41299550559942316,0.06673619235616413,0.22981363006602545,0.5449426670675385,0.5866416626003714,0.4867137597116321,9
20100,0.4066438965049362,0.09189813037252524,0.28909954488615397,0.6479163772369774,0.5554680172789991,0.5132800868508655,9
20125,0.3923041990857074,0.13865773259674494,0.36832850793262517,0.7678001221305032,0.5381766052851097,0.5406573478726725,9
20150,0.3836632804995858,0.19558222024473637,0.4449683929966235,0.8596050245700109,0.5350458818208121,0.5509991359882599,2
20175,0.3825387170729425,0.25370345693623203,0.5211099202587807,0.8948630398982487,0.5279602989124643,0.5593792461296634,2
20200,0.37925530011752046,0.310429756844535,0.5956976036336041,0.9001834854440799,0.5224041225938846,0.5672816577833287,2
20225,0.376922505304934,0.3669541988698217,0.6692234473573336,0.8989501878993118,0.5240707806491797,0.5625523196859713,2
20250,0.376102889572055,0.42358959215108793,0.7417235873343258,0.8942089557966573,0.5240302254273723,0.566693210797584,2
20275,0.3745027398504436,0.4802715680207425,0.8156556621586795,0.8918977743267029,0.5232148259719411,0.5672316655626337,2
20300,0.37234113408616154,0.5348708787113619,0.8908330358408606,0.8996991499084023,0.524264242824018,0.566143519320573,2
20325,0.366380892880242,0.5794809062204976,0.9454776709893414,0.8762944811640302,0.525250889818131,0.5654286191941523,2
20350,0.37031218607313793,0.6184866248684395,0.9694675434057732,0.805205675641967,0.5376598078010444,0.5565632726040702,2
20375,0.37903787351276075,0.633991286515103,0.9696851530276128,0.7059903036952763,0.5482667518661962,0.5294521187706631,3
20400,0.3828414629783041,0.6360516485154553,0.9650109142344092,0.6053505732296466,0.5518041055699641,0.517983297363407,3
20425,0.3657390715608753,0.6368686788839151,0.9615521919602774,0.5607436529081501,0.5632040552582219,0.5061398765301618,3
20450,0.3271741972417096,0.6322378049606787,0.9483407464883644,0.5340521541605422,0.5796137211263009,0.511730657976259,3
20475,0.2660211756999623,0.6304445164670861,0.9259102773291673,0.4784461404107059,0.6024769976366855,0.563596141112457,3
20500,0.21765228807098572,0.6402308124906835,0.909023294156983,0.4695454220934604,0.6148120441323244,0.5991932665073737,3
20525,0.20210766194841764,0.6653176537281881,0.9023881861801212,0.48608661696637157,0.5992556848203237,0.6485667167008763,3
20550,0.17624160224142066,0.6975369950447419,0.8907663234020485,0.49092236252873694,0.5855876862013345,0.7207483601116925,3
20575,0.15244742542129852,0.7290920404190062,0.8754994994581601,0.48494608228595615,0.6036150298385868,0.7765306020869941,3
20600,0.15888435381638735,0.7527190115682918,0.873660142216624,0.4679495176891742,0.5921969742263274,0.8112518726041794,3
20625,0.15491122664384147,0.7776079473848253,0.8691737307065045,0.42398402858965184,0.5830560382841976,0.852366979374625,5
20650,0.1468356172300952,0.8006361205342825,0.8670238429462118,0.41120413424586905,0.5985482439455982,0.8771290651299779,5
20675,0.15555965332841606,0.8214935450648428,0.8650931531991591,0.40677127169601296,0.5913630322340073,0.8725329712496128,5
20700,0.17602747831926488,0.8475337766113623,0.8715706133295423,0.4091481067217753,0.5796359016298536,0.8645449153393457,5
20725,0.22750143804305054,0.8741507852977446,0.8884845991555316,0.46004497223406243,0.559272895218583,0.8198470253207376,5
20750,0.274358247486521,0.889405594879416,0.905025710100303,0.48169877150569024,0.5415090311036237,0.7793595268149249,5
20775,0.293830864119381,0.8902469046575813,0.910599772621771,0.4663687145060561,0.5507840342238058,0.7328809702124911,6
20800,0.30808083866120256,0.8818744607712496,0.9154574706217083,0.45633928581440875,0.5694623107883832,0.661710519402853,6
20825,0.34137628288577404,0.8774443154561593,0.9297573613006701,0.4614620324524246,0.5517758338188661,0.5961680203690375,6
20850,0.3390429376260869,0.8883209263667614,0.9178567358318463,0.5111710940946874,0.5469454474938138,0.5556938944422609,6
20875,0.30682416793040146,0.9105134361124035,0.894087252722205,0.6078341260436134,0.5814487453596601,0.5098229541210959,6
20900,0.28924453887670265,0.9290527416535294,0.8730585389737641,0.6941021009511652,0.5575633481247113,0.4382915261692153,6
20925,0.2792258511976353,0.9303598773155781,0.8744920622125257,0.6685110756617282,0.5446798817099922,0.3881209940160384,6
20950,0.25042260576152986,0.9277484291786557,0.866394839951697,0.6524698283955538,0.5337402955123735,0.3595215867325288,6
20975,0.2090537539116147,0.9123809744286998,0.8577365184287155,0.6130931387751141,0.5446251842127726,0.338055123808556,6
21000,0.16953935834381478,0.8920568499555066,0.8443102430199131,0.613854747433945,0.5528974439718752,0.2864057221974679,6
21025,0.12903195620642868,0.8700489766511128,0.8299797758064957,0.6471730376916264,0.5592645270419413,0.21924532391979276,6
21050,0.10156849901332357,0.8518922129722063,0.8238446140228752,0.6967533869659267,0.558728832895225,0.1642711018622765,6
21075,0.07980216931202375,0.8290848130598379,0.823438382922251,0.720789435026186,0.5491868985932138,0.14067623179138486,2
21100,0.06239978422473659,0.7951563142275082,0.8309451206800221,0.6964054857304052,0.5395627843593426,0.14123043355972448,2
21125,0.08235184028226923,0.754384692001572,0.8554309683111944,0.646660044723039,0.5191044128758916,0.1435864197959563,2
21150,0.09453268417271933,0.7122178506737254,0.8848686261327712,0.5786187204555885,0.5205299183982033,0.17729578872894697,2
21175,0.10852780170693647,0.6901622655060733,0.8870169255016634,0.5836914661030539,0.5264831080951978,0.23006477931002953,4
21200,0.13284215103718003,0.6753902209313356,0.8965802330249603,0.6196540711434477,0.547164322814201,0.2703510225079032,4
21225,0.15719833434707348,0.6709832257510807,0.9152108728568134,0.6728276201833552,0.5379889868964408,0.2889318799642258,4
21250,0.18475261531178705,0.6368731959833951,0.9130927529245265,0.5995059707761466,0.5339697434067163,0.3467328284564201,4
21275,0.2307903594694791,0.594920634562135,0.8812538444035609,0.43525150199212764,0.5258553128065174,0.4082117757241027,4
21300,0.27596004854943434,0.5375094294451647,0.8148320812176292,0.2822907281616967,0.5297139254194619,0.44024459156040213,8
21325,0.31478473390011036,0.47732839539075167,0.745452733244357,0.17703231349836113,0.5536012113251416,0.44681457665069,8
21350,0.3349520147740002,0.4160855606398019,0.6737352731298577,0.1660964969278609,0.5805289285811437,0.44419929436793143,8
21375,0.3511434162398408,0.35550928038088175,0.6036995224104158,0.16278623012840648,0.5946815148839634,0.44648623725178027,8
21400,0.3672082148725303,0.2949087207122562,0.5333214733442111,0.16401626944765044,0.5974873670718731,0.4487689775161754,8
21425,0.3827539418892996,0.23419805674380365,0.46222626556077556,0.16273688950478835,0.6004803853914544,0.4507998816622624,8
21450,0.3985996625759273,0.1698121677108695,0.3923469713942621,0.15862895552005082,0.6022882272726463,0.44891225897071696,8
21475,0.4189007020952769,0.10283741603841334,0.31327525909641973,0.1398960121437741,0.6029216629740665,0.45057575384876614,8
21500,0.4418791163122247,0.07069740628147851,0.24918882836676431,0.18685991287392814,0.597193227938424,0.444062621170186,10
21525,0.44062354647562485,0.0673750796138783,0.2245461270848133,0.3309627863298064,0.6016806299521279,0.44642946064328815,10
21550,0.4017977602307475,0.07800833178999105,0.2543920014962647,0.49525903578204455,0.594779104264143,0.49242165266683463,10
21575,0.3429808361841906,0.10946117778851837,0.310687372407497,0.6385143127056716,0.5696546423207282,0.5747916740913873,10
21600,0.29379233282233497,0.16133639517393092,0.37692408799529514,0.7075269713167754,0.5367291425433602,0.6517375919639317,10
21625,0.2508255330392111,0.22674060782090596,0.4373040073923735,0.7618736528670329,0.5176339518702955,0.7070509665261138,10
21650,0.2019408764769184,0.2878744675468988,0.4975290586279236,0.7771470304482733,0.5128059775825621,0.7334280152654745,10
21675,0.16225088828400872,0.3607174960814162,0.5608689453994427,0.769129851937012,0.5115666113694312,0.7562741858938086,10
21700,0.14886346434891742,0.445831789991011,0.6307184572272008,0.8071508456247762,0.49405102212406665,0.7944944079912106,10
21725,0.13219482524680679,0.5355306575541713,0.6881058472261324,0.8098718377301519,0.49273270435449656,0.8505687130677397,10
21750,0.1354292524102703,0.6208665716570075,0.758050662537908,0.8192696005315829,0.49180868499916575,0.8942893636372442,10
21775,0.13361552921360376,0.6981386162317452,0.8239732737262986,0.7866236074200823,0.494818974416153,0.9302555682004485,5
21800,0.1396638419556285,0.7630292911315786,0.8679343883164281,0.7312671469569357,0.5038512264597512,0.9360135782287011,5
21825,0.17036888212450568,0.8170902200279156,0.8896798636842499,0.6608992503090954,0.514675662052654,0.890887507058199,5
21850,0.20940934273863943,0.8529424386013252,0.8903632690842248,0.6049000098556649,0.5342875876333442,0.8277133657913042,5
21875,0.24300423018596856,0.8692601781544034,0.8993015445915074,0.5502320753675535,0.550197001796938,0.7642980454464132,5
21900,0.27353642996523925,0.8879042239397238,0.9062789509151318,0.5167319194337391,0.5528853681411708,0.7256076137730743,7
21925,0.3091211836814453,0.8983330773643627,0.9126011457861366,0.5300218008305921,0.5533439766471098,0.6998252702437587,7
21950,0.33162346115632424,0.8983545335868932,0.9161829683937908,0.4998294633546815,0.5562367091108295,0.6589283764064854,7
21975,0.35831078793750226,0.9066143323049404,0.9213218116715793,0.5227223165771663,0.5518631336412615,0.6013792863276627,7
22000,0.3606424818558875,0.9189742457573142,0.910385339782732,0.549709799882654,0.5458570483640774,0.5371146154764281,7
22025,0.38564709185035545,0.9329947579060534,0.9036553254197025,0.6242886072624664,0.5294617238782647,0.4540539799380324,7
22050,0.39817251562581707,0.9283009269088133,0.9084224851098233,0.6135043355581055,0.5058907064106817,0.3866891336993373,7
22075,0.4093972329024251,0.9013075873719967,0.9156504601768434,0.5321951556229435,0.4995337024140112,0.3430627154448617,7
22100,0.4072796629061956,0.8686438763940898,0.9173027843309954,0.48012127950204847,0.509963220939235,0.3069203219135157,7
22125,0.40054329128834903,0.8154256688695054,0.9110413454310518,0.4412371114752958,0.5265500876409351,0.2719335706992123,7
22150,0.4243380185555718,0.7467036466544102,0.8720364091076773,0.3495268034838966,0.537551647269101,0.21549857831626498,7
22175,0.4489551137911769,0.6737505138200659,0.8075163475257429,0.2642789210501429,0.5507980342800365,0.16565143828742615,7
22200,0.4632050883329985,0.5900969369548426,0.7350189872337012,0.1924153026455421,0.5851428914444984,0.13723751032498316,8
22225,0.4687293754351973,0.4943965380949584,0.6700926945511424,0.1466609667447935,0.6227995014472458,0.128241681876266,8
22250,0.4779278969342849,0.39426542928254904,0.613331527861775,0.10481691264504243,0.6333349519298385,0.1345991392745523,8
22275,0.47870622913461464,0.29209597932975273,0.5547913628040826,0.05216926799322345,0.6504236432801714,0.17372007524539315,8
22300,0.4918316402497929,0.20651529489883952,0.48173131485848814,0.0575770065716478,0.6669570113923523,0.21237550366917107,8
22325,0.5015949204741551,0.14777549789729016,0.40480949032093844,0.14184228169982438,0.6707537728832458,0.2518239674986133,8
22350,0.5234487712644595,0.09696377512071934,0.33290142323840444,0.21146764557134884,0.665551299935727,0.29371333054280885,8
22375,0.5525145799675787,0.06338506917937856,0.2651422344934282,0.2482719692553092,0.6512745918422198,0.33313355098591724,9
22400,0.5545484820045082,0.06278655349826762,0.24697937592896077,0.35088482316058844,0.6402900786051532,0.3912311620509215,9
22425,0.5375776474441366,0.07508012205202802,0.2886643256424745,0.5228966908265439,0.6175585141231746,0.46233112032905466,9
22450,0.5086439460451753,0.12133070362858597,0.36524266053971155,0.713985179247882,0.5843620114288103,0.5211137405289595,9
22475,0.4835121827704554,0.18556075272945732,0.4375549732336194,0.8504326898576734,0.5626046526069438,0.5493563420765915,2
22500,0.4633008661285129,0.2508788581675934,0.5108929896742646,0.9135909775685812,0.5514029365470647,0.5671938709711329,2
22525,0.4466768132415555,0.3163991038074631,0.5847301581124509,0.9309536284110289,0.5441934352214589,0.5793249650076193,2
22550,0.4285814152545405,0.3809436559596352,0.6593774061647852,0.9355095185663408,0.5437104076820498,0.5854058922753591,2
22575,0.4119122257053292,0.44564348340643506,0.7328428910153038,0.9335868913924411,0.5428838354877171,0.5869904983010213,2
22600,0.39740354102619857,0.5094791332589517,0.8060891778525822,0.9326687788856022,0.5427242072561668,0.5842194894593232,2
22625,0.3834975959222879,0.573315065430186,0.8816080556858256,0.9331625807189552,0.5420288877222839,0.5797291655893042,2
22650,0.369807426081835,0.6266749969509579,0.9428885930068686,0.9269642988192764,0.5419213131333683,0.5753275760716761,2
22675,0.36518697311891585,0.6733236479191981,0.9718000961770992,0.8554137753289656,0.5500686347636816,0.5670431808670187,2
22700,0.3663120869926598,0.697510174766579,0.9752596126469312,0.7495016815060254,0.5591511228887746,0.5413194889610285,3
22725,0.3687313020000496,0.7023615396081867,0.9710829374598683,0.6393884453978094,0.5566036914868706,0.5315261504874197,3
22750,0.36445432802794075,0.7029146019757794,0.9690553558373979,0.570438967081456,0.5607135527724959,0.515186343756413,3
22775,0.317292570890706,0.6991464940532385,0.9528561461415391,0.5460461526711032,0.5755769135676563,0.5048734099118969,3
22800,0.25644614838402496,0.6850599193246032,0.926903816150049,0.49663022853305966,0.6148316874456784,0.5153995068577218,3
22825,0.21753394194434433,0.6886668232594486,0.9120424291110845,0.44637979994869076,0.6194482031433417,0.5387992906647214,3
22850,0.20168381768091137,0.7096789584472019,0.9061220972643532,0.4816089397983339,0.5956897991043556,0.6124808032536792,3
22875,0.17784450419853526,0.73689278890239,0.8909493855109318,0.4759217819042266,0.5941523002431579,0.6945165614809728,3
22900,0.15845280328947192,0.7640191005551514,0.875154421426447,0.4810529700251974,0.6081248029295467,0.7507565523212689,3
22925,0.15283604107436266,0.7839900443127459,0.8693933258175947,0.44072491593092866,0.6078127512901829,0.7964237425168988,5
22950,0.12899507625068463,0.8030304655774434,0.8605455886201285,0.40526725485840054,0.6148692489537144,0.8315316674008617,5
22975,0.1124987270910797,0.8200127833915286,0.8521020970340364,0.38727347078019614,0.6244518380309602,0.8416686708999715,5
23000,0.10282682108542666,0.8357802837641892,0.8463084394014782,0.3800605101695885,0.6184300702446279,0.8423625980602379,5
23025,0.11219983431542274,0.8544265880992497,0.8494574253525532,0.3766254402498131,0.6115812808513493,0.8416439724287206,5
23050,0.15616844782174327,0.8825929619073001,0.8668415750330285,0.4116429698769263,0.5746623517878977,0.8253212258802389,5
23075,0.1837662141074088,0.9049794246118682,0.8790241399754037,0.47528979829029755,0.5600826627944252,0.8016269376625679,5
23100,0.18333136089788937,0.9013905890749432,0.8779980391308162,0.4475148243031478,0.5804766800982302,0.7393885536497872,5
23125,0.1881659377829642,0.8923315460676391,0.8825503688840477,0.445004601386945,0.5883194208627857,0.654505976676666,5
23150,0.19183246592044392,0.8787974690691612,0.8934237022147337,0.4376320095302162,0.5757531515774184,0.5955097697692474,5
23175,0.18064297725827808,0.8743868037455789,0.8908989540839727,0.4659830757923064,0.570844014224973,0.5453908729829392,5
23200,0.18543406882240107,0.8705534801992943,0.8945760801756442,0.5055778827415096,0.5691395315561559,0.5084275172494954,5
23225,0.18880005284292176,0.8684710973389765,0.8965691142851582,0.5259868810010067,0.555559118620117,0.4935519120541794,6
23250,0.19203558090058656,0.8662325922278786,0.8993428427679148,0.5310324955353589,0.5565204705106017,0.4947764862482878,6
23275,0.20520778001932072,0.867162832402058,0.9023623748198665,0.534020157513711,0.5538932228596348,0.4918819805913224,6
23300,0.21492096955752316,0.8841070371892801,0.897312481460494,0.5687549068066512,0.546638086243057,0.49398847837942356,6
23325,0.21729614879686035,0.9078737561037307,0.8749419740766582,0.6306600735050695,0.5528170076471808,0.4902698111787604,6
23350,0.22273952017526238,0.9309106811334306,0.8575248652746267,0.6940696432934568,0.5411644126938794,0.46473798835901164,6
23375,0.2074525032958021,0.9257075471698112,0.8623515896422583,0.669581250114474,0.5338895474324387,0.42118155430859516,6
23400,0.1966604374403109,0.899999887072513,0.8583000002779685,0.5927544290997043,0.5285778757529512,0.3474782995737953,6
23425,0.18569443030101204,0.8682006360076068,0.8487998313128331,0.5605066310184814,0.5347328104699167,0.2804707963820061,6
23450,0.17278644579059343,0.8422716380357845,0.8448415599433102,0.5900539021393522,0.5459923670709274,0.2095438388779465,6
23475,0.16963568658642983,0.8162534273492306,0.8462445066476164,0.6480649940610586,0.5473183092108197,0.15057808479764612,2
23500,0.1710640968126361,0.7980562920937208,0.849761999403559,0.6627458761019562,0.5407710742591156,0.13720394956602489,2
23525,0.16523321067537106,0.7807213582014716,0.8516001653515447,0.6841248786264268,0.5362549766811527,0.15379021038703147,2
23550,0.16298738650468853,0.7510262285381311,0.8603255964111883,0.6737396305259474,0.5410635963604706,0.1587939851084806,2
23575,0.17360881375897572,0.7136644517822216,0.8837222046396119,0.6188474765448257,0.5347859919106611,0.1581583394734867,4
23600,0.174214305569699,0.6785135129030947,0.9174342237193692,0.5624535079875118,0.5377171889742196,0.1824078059832749,4
23625,0.17089180687013028,0.6366354836232558,0.9179925432965712,0.5467492191784014,0.558601341932127,0.2217875497387537,4
23650,0.2013810717755497,0.5980055311883135,0.8844703369891486,0.4730888731785242,0.5639556295893623,0.2977121262972536,4
23675,0.23135236595925046,0.5608165334875169,0.8356185652775256,0.40767601800235026,0.5618280875212235,0.34463260004015117,4
23700,0.2718146314343826,0.50938540344474,0.7740247177527756,0.3070009205265841,0.5633470694449849,0.3888016845971556,8
23725,0.3008297990042412,0.4553411313527358,0.7118090149948119,0.22336710881763044,0.5698655334562639,0.4372685528565288,8
23750,0.3227673177538456,0.39761965796522736,0.646575368576297,0.2043181237953755,0.5818449679994255,0.46027987639661433,8
23775,0.34008438354053083,0.33597705991029037,0.5826783535211262,0.1861731374942514,0.5931915414066603,0.4483590716277627,8
23800,0.35096617227342913,0.27320518698533297,0.5173768033702488,0.18159730861849868,0.6023909109439086,0.44249649775209465,8
23825,0.3623218959599935,0.21017047533437822,0.4505837536944991,0.1753733845462426,0.6098942200322706,0.4440714188022095,8
23850,0.36664015346465173,0.14441646979641426,0.38082835405720833,0.16603197097973904,0.6131221929729039,0.4445854225712123,8
23875,0.38784227488777767,0.09156951138534909,0.30465466186919515,0.15721199186477777,0.6098835848818752,0.448587952748779,10
23900,0.3874074216782582,0.08962094759712891,0.2702910052174686,0.28114142492979866,0.6080292529724304,0.44767714590013236,10
23925,0.3504410457394019,0.09819270849801925,0.293813096366515,0.4712112911282444,0.6045108371748761,0.4956463749670493,10
23950,0.2974957409155587,0.13832713737854643,0.36042268683553114,0.6322168387088656,0.5763719259034139,0.5775625001135655,10
23975,0.2553485568653139,0.2018934551745633,0.422825025583029,0.731731708863906,0.5390404901039108,0.6654708025688862,10
24000,0.2129421122306594,0.2728745917671344,0.47793426521609467,0.779258320093807,0.5243313517892103,0.7278278364501478,10
24025,0.1658282439911819,0.3479095428243616,0.5308344495092069,0.7828469440149637,0.5249157503168362,0.7616035532623547,10
24050,0.1407394155903133,0.4312277250531888,0.5905293751149102,0.7941691686889885,0.5145499132745297,0.7915214415470758,10
24075,0.1146999650466091,0.5198628156887899,0.6422442223255559,0.7892906176436838,0.5102317904860354,0.8381962950353453,10
24100,0.12096405305209161,0.6082328090486536,0.7016873878943133,0.7943250308596943,0.510524060859439,0.8870960687705499,10
24125,0.12212824866998219,0.6879630026967084,0.7691364432183827,0.7568426910027249,0.49949210330341126,0.9318277893183838,5
24150,0.11703165896499436,0.7610948432792336,0.8347151676686105,0.7389234349397154,0.5135770800295195,0.958403210613984,5
24175,0.13650922962176026,0.8219557008053988,0.8730049307640042,0.6870954520529375,0.5165825339943345,0.9383992548008825,5
24200,0.18025711384071716,0.8694148888115962,0.8838143313408287,0.6160282112491389,0.5277379449108965,0.883501877138438,5
24225,0.21731376310408135,0.8909606063754342,0.8857755976223368,0.553233673580127,0.5461363483481249,0.8125170327317282,5
24250,0.2520354157664564,0.9000207786576084,0.8966171631250172,0.49563255738557493,0.5551533687173803,0.7483191400544336,5
24275,0.29936946284619687,0.9081052574520848,0.9069293971935505,0.477564257751929,0.5535238213353157,0.7116116313212064,5
24300,0.34004695313768607,0.9070637837032085,0.9133786633765785,0.4670520821431673,0.5501762107747888,0.6821891594111192,7
24325,0.37727093831965014,0.9166089795420564,0.9194844399192937,0.49565665454872576,0.5408054841900888,0.6321332751625401,7
24350,0.4049452167523071,0.9319354980779742,0.9075524437203145,0.5463058575419074,0.5331149051500528,0.5710801390815106,7
24375,0.4153123374460906,0.9573410771475419,0.8854007372518684,0.6309833760723643,0.5241454258088019,0.48703858094953495,7
24400,0.4387223021899538,0.9604208920368053,0.8925683534456776,0.6492182999887488,0.503961550145446,0.40811766380241615,7
24425,0.4379439699896241,0.9419535777686432,0.9016968388231449,0.5662139207592077,0.49090658161970985,0.3584070698894612,7
24450,0.41134361385035,0.905214031466115,0.8979915187841181,0.5008253807918697,0.5138682112272791,0.31971674523242644,7
24475,0.40477788083370725,0.8381526079473848,0.8751540243285968,0.40322966153951967,0.5325806758609063,0.2668448607041782,7
24500,0.4104331743458624,0.7723534314146201,0.8242476683406988,0.3132421169320449,0.5477669097529538,0.20728118646568813,7
24525,0.4198001326577513,0.6945698253237631,0.7591966869332173,0.2521911037111251,0.5702400534489266,0.17171257868638531,7
24550,0.42040397312717254,0.6118916596275199,0.6914343214054404,0.21160614196069918,0.5923499508667571,0.13886387054540872,8
24575,0.4118109434388082,0.5166130449315885,0.6294691873908725,0.17659399806200993,0.6227338388511297,0.1336372343700653,8
24600,0.39765344400989705,0.4142019301566078,0.5802135671657259,0.1278596847358426,0.634967389205672,0.1346852383504476,8
24625,0.38612322859242426,0.30691855895492387,0.5383431727562283,0.07516330064350893,0.6679019710999728,0.17005860602992065,8
24650,0.3778307430210189,0.21540325276333555,0.47765232574254324,0.07869549745627905,0.6813643591816368,0.20992081495769557,9
24675,0.3775720328837099,0.14946715165258082,0.4002011697708467,0.15765106734608872,0.6889208482885514,0.2549671255388313,9
24700,0.4088368777539557,0.11006336361295672,0.35113139133953414,0.23286676125280828,0.6750680500650714,0.300885150804422,9
